File: example raman data/GM1_Fiber005.V4_Blue_140umx1.34um_40x_300sec.csv
340.52,43336
342.025,43284
343.528,43559
345.032,44121
346.535,44352
348.038,44109
349.54,44093
351.042,43685
352.543,43280
354.044,43457
355.545,43685
357.045,43985
358.545,43626
360.044,43214
361.543,42657
363.041,42187
364.539,41781
366.037,41854
367.534,41785
369.031,41498
370.528,41344
372.024,41272
373.519,41463
375.015,41518
376.509,41633
378.004,41708
379.498,41573
380.991,41754
382.485,41627
383.977,42093
385.47,42908
386.962,43535
388.453,44322
389.944,46171
391.435,47183
392.925,44708
394.415,42010
395.905,41407
397.394,40884
398.882,40759
400.371,40216
401.858,40108
403.346,40131
404.833,39769
406.319,39692
407.806,39567
409.291,39722
410.777,39655
412.262,39668
413.746,39462
415.231,39425
416.714,39700
418.198,39717
419.681,39349
421.163,39352
422.645,38843
424.127,38985
425.608,38835
427.089,38383
428.57,38576
430.05,38759
431.53,38746
433.009,38928
434.488,38613
435.966,38709
437.444,38466
438.922,38374
440.399,38420
441.876,38197
443.353,38015
444.829,37724
446.304,37867
447.78,37909
449.254,37692
450.729,37937
452.203,37792
453.677,37807
455.15,37994
456.623,38209
458.095,37758
459.567,37738
461.039,37778
462.51,37802
463.981,37573
465.451,37405
466.921,37216
468.391,37367
469.86,37325
471.329,37241
472.797,37082
474.265,37296
475.733,37219
477.2,36862
478.667,37123
480.133,37008
481.599,36955
483.065,36786
484.53,36908
485.995,36482
487.459,36805
488.923,36805
490.387,36719
491.85,36392
493.313,36565
494.775,36584
496.237,36737
497.699,36440
499.16,36363
500.621,36630
502.081,36229
503.541,36483
505.001,36453
506.46,36258
507.919,36475
509.377,36224
510.835,36272
512.293,36251
513.75,36257
515.207,36415
516.663,36101
518.119,36001
519.575,35569
521.03,35309
522.485,35350
523.939,35514
525.393,35701
526.847,35579
528.3,35574
529.753,35318
531.205,35224
532.657,35235
534.109,35196
535.56,35190
537.011,35336
538.462,35255
539.912,35029
541.361,34693
542.811,35063
544.26,35016
545.708,35323
547.156,35051
548.604,34925
550.051,34801
551.498,34845
552.945,34981
554.391,34798
555.837,34672
557.282,34620
558.727,34779
560.171,34678
561.616,34641
563.059,34513
564.503,34524
565.946,34778
567.388,34669
568.831,34520
570.272,34674
571.714,34568
573.155,34545
574.595,34646
576.036,34589
577.476,34741
578.915,34486
580.354,34656
581.793,34867
583.231,34154
584.669,34354
586.106,34562
587.544,34054
588.98,34274
590.417,34207
591.853,33960
593.288,33984
594.723,34361
596.158,34097
597.592,33984
599.026,34262
600.46,34129
601.893,34185
603.326,34042
604.758,34374
606.19,34090
607.622,33796
609.053,33835
610.484,33754
611.915,34160
613.345,34465
614.775,34651
616.204,34880
617.633,35321
619.061,35630
620.49,36343
621.917,36969
623.345,37577
624.772,37315
626.198,36400
627.625,35786
629.05,35322
630.476,34380
631.901,34546
633.326,34089
634.75,33373
636.174,33215
637.597,32820
639.021,32830
640.443,32731
641.866,32829
643.288,32745
644.709,32592
646.13,32624
647.551,32781
648.972,32555
650.392,32194
651.811,32156
653.231,32553
654.65,32272
656.068,32287
657.486,32433
658.904,32113
660.321,32044
661.738,32140
663.155,32323
664.571,32126
665.987,32119
667.403,32154
668.818,32327
670.232,32268
671.647,32657
673.061,32840
674.474,32989
675.887,33359
677.3,33712
678.712,33583
680.124,32663
681.536,32102
682.947,31779
684.358,31530
685.769,31712
687.179,31875
688.588,31859
689.998,31603
691.407,31567
692.815,31730
694.224,31625
695.631,32155
697.039,32005
698.446,31692
699.853,31921
701.259,31827
702.665,31949
704.07,32240
705.475,31950
706.88,31886
708.285,32179
709.689,32172
711.092,31855
712.496,32027
713.898,32075
715.301,31932
716.703,31828
718.105,31879
719.506,31431
720.907,31530
722.308,31523
723.708,31245
725.108,31434
726.507,31331
727.907,30783
729.305,30660
730.704,30639
732.102,30769
733.499,31042
734.896,30592
736.293,30560
737.69,30378
739.086,30406
740.482,30381
741.877,30104
743.272,30186
744.666,30336
746.061,30566
747.454,30413
748.848,30520
750.241,30609
751.634,30831
753.026,30811
754.418,30494
755.81,30049
757.201,30175
758.592,29907
759.982,29911
761.372,29733
762.762,29579
764.151,29391
765.54,29295
766.929,29273
768.317,29287
769.705,29271
771.092,29163
772.479,29227
773.866,29005
775.253,29012
776.639,28650
778.024,28863
779.409,28918
780.794,28509
782.179,28640
783.563,28986
784.947,28765
786.33,28756
787.713,28689
789.096,28549
790.478,28561
791.86,28494
793.241,28496
794.622,28310
796.003,28243
797.384,28197
798.764,28230
800.143,28058
801.523,27973
802.902,27925
804.28,28023
805.658,27728
807.036,27762
808.414,28018
809.791,27957
811.167,27910
812.544,27745
813.92,27669
815.295,27692
816.67,27655
818.045,27664
819.42,27713
820.794,27630
822.168,27764
823.541,27757
824.914,27848
826.287,27798
827.659,28081
829.031,28170
830.402,28255
831.774,28407
833.144,28220
834.515,28323
835.885,28105
837.255,28119
838.624,28112
839.993,27972
841.362,27522
842.73,27793
844.098,27551
845.465,27263
846.832,27427
848.199,27326
849.565,27251
850.931,27239
852.297,27192
853.662,26884
855.027,27048
856.392,26957
857.756,26684
859.12,26489
860.484,26662
861.847,26619
863.209,26490
864.572,26484
865.934,26601
867.295,26610
868.657,26445
870.018,26689
871.378,26315
872.738,26398
874.098,26125
875.458,26145
876.817,26055
878.176,26223
879.534,26076
880.892,26243
882.25,25921
883.607,26172
884.964,25935
886.32,25999
887.677,25953
889.033,25809
890.388,25750
891.743,25704
893.098,25846
894.452,25559
895.806,25539
897.16,25568
898.513,25425
899.866,25468
901.219,25645
902.571,25244
903.923,25692
905.274,25633
906.626,25345
907.976,25443
909.327,25246
910.677,25019
912.027,25235
913.376,25204
914.725,25382
916.074,25276
917.422,25300
918.77,25363
920.117,25089
921.464,25074
922.811,25160
924.158,25378
925.504,25230
926.85,25275
928.195,25101
929.54,25140
930.885,25245
932.229,25213
933.573,25212
934.916,25383
936.26,25334
937.603,25300
938.945,25386
940.287,25380
941.629,25157
942.971,25132
944.312,25230
945.652,24919
946.993,24903
948.333,24819
949.672,24644
951.012,25072
952.351,25173
953.689,24984
955.028,24894
956.365,24742
957.703,25112
959.04,24529
960.377,24677
961.713,24632
963.049,24535
964.385,24633
965.721,24600
967.056,24734
968.39,24844
969.725,24788
971.059,24824
972.392,24812
973.725,24694
975.058,24299
976.391,24450
977.723,24416
979.055,24195
980.386,24323
981.718,24286
983.048,24439
984.379,24481
985.709,24395
987.039,24064
988.368,24058
989.697,24111
991.026,23975
992.354,23817
993.682,23854
995.009,23956
996.337,23878
997.664,23671
998.99,23773
1000.32,23534
1001.64,23614
1002.97,23936
1004.29,23708
1005.62,23523
1006.94,23422
1008.27,23604
1009.59,23696
1010.91,23690
1012.24,23518
1013.56,23564
1014.88,23466
1016.2,23590
1017.52,23588
1018.85,23559
1020.17,23598
1021.49,23443
1022.81,23462
1024.13,23638
1025.45,23367
1026.77,23462
1028.09,23398
1029.4,23439
1030.72,23520
1032.04,23538
1033.36,23799
1034.67,23720
1035.99,23655
1037.31,23389
1038.62,23229
1039.94,23404
1041.25,23147
1042.57,23048
1043.88,23169
1045.2,23235
1046.51,23155
1047.83,22864
1049.14,22951
1050.45,22811
1051.76,22804
1053.08,22871
1054.39,22985
1055.7,22840
1057.01,22985
1058.32,22905
1059.63,22934
1060.94,22582
1062.25,22599
1063.56,22586
1064.87,22650
1066.18,22856
1067.49,22780
1068.8,22802
1070.1,22491
1071.41,22561
1072.72,22682
1074.02,22545
1075.33,22670
1076.64,22662
1077.94,22806
1079.25,22399
1080.55,22350
1081.86,22433
1083.16,22495
1084.47,22648
1085.77,22772
1087.07,22672
1088.37,22797
1089.68,22879
1090.98,22966
1092.28,22778
1093.58,22597
1094.88,22409
1096.18,22422
1097.49,22224
1098.79,22080
1100.09,22210
1101.38,22076
1102.68,22246
1103.98,22333
1105.28,22254
1106.58,22229
1107.88,22132
1109.17,22204
1110.47,22111
1111.77,22102
1113.06,22033
1114.36,21895
1115.66,22079
1116.95,22250
1118.25,21995
1119.54,21938
1120.83,21733
1122.13,21817
1123.42,21831
1124.72,21762
1126.01,21903
1127.3,21986
1128.59,22224
1129.89,22028
1131.18,21910
1132.47,21876
1133.76,21640
1135.05,21634
1136.34,21535
1137.63,21745
1138.92,21648
1140.21,21533
1141.5,21731
1142.79,21527
1144.07,21717
1145.36,21822
1146.65,21762
1147.94,21788
1149.22,21658
1150.51,21711
1151.8,21655
1153.08,21492
1154.37,21726
1155.65,21626
1156.94,21696
1158.22,21590
1159.5,21331
1160.79,21686
1162.07,21458
1163.36,21638
1164.64,21866
1165.92,21890
1167.2,21735
1168.48,21659
1169.77,21520
1171.05,21545
1172.33,21512
1173.61,21606
1174.89,21239
1176.17,21347
1177.45,21247
1178.73,21435
1180,21395
1181.28,21159
1182.56,21219
1183.84,21076
1185.12,21320
1186.39,21241
1187.67,21223
1188.95,21250
1190.22,21136
1191.5,21492
1192.77,21149
1194.05,21151
1195.32,20888
1196.6,20894
1197.87,21248
1199.14,21123
1200.42,20917
1201.69,20945
1202.96,20755
1204.24,20781
1205.51,20862
1206.78,20563
1208.05,20546
1209.32,20438
1210.59,20588
1211.86,20696
1213.13,20582
1214.4,20679
1215.67,20682
1216.94,20700
1218.21,20681
1219.48,20706
1220.75,20601
1222.01,20585
1223.28,20783
1224.55,20697
1225.81,20474
1227.08,20447
1228.35,20060
1229.61,20164
1230.88,20008
1232.14,20127
1233.41,20103
1234.67,20058
1235.94,19968
1237.2,19787
1238.46,19824
1239.73,19871
1240.99,19768
1242.25,19944
1243.51,19987
1244.77,20029
1246.04,20180
1247.3,20195
1248.56,20227
1249.82,20021
1251.08,20039
1252.34,20022
1253.6,20152
1254.86,20298
1256.12,20176
1257.37,20080
1258.63,20017
1259.89,19724
1261.15,20035
1262.4,20031
1263.66,20038
1264.92,20289
1266.17,20021
1267.43,19920
1268.68,19897
1269.94,19898
1271.19,19930
1272.45,19902
1273.7,19828
1274.96,19727
1276.21,19629
1277.46,19752
1278.72,19814
1279.97,19828
1281.22,19861
1282.47,19640
1283.72,19861
1284.98,19895
1286.23,20072
1287.48,20240
1288.73,20114
1289.98,20190
1291.23,20370
1292.48,20502
1293.72,20766
1294.97,20937
1296.22,21144
1297.47,21342
1298.72,21458
1299.96,21274
1301.21,21449
1302.46,21188
1303.7,21158
1304.95,20633
1306.2,20530
1307.44,20410
1308.69,20186
1309.93,20354
1311.17,20308
1312.42,20328
1313.66,20115
1314.91,20019
1316.15,20287
1317.39,20022
1318.63,20044
1319.88,20080
1321.12,19973
1322.36,19878
1323.6,19786
1324.84,19687
1326.08,19598
1327.32,19324
1328.56,19300
1329.8,19451
1331.04,19441
1332.28,19490
1333.52,19426
1334.76,19361
1335.99,19178
1337.23,19190
1338.47,19066
1339.7,18892
1340.94,18855
1342.18,18753
1343.41,18804
1344.65,18672
1345.88,18790
1347.12,18681
1348.35,18493
1349.59,18416
1350.82,18350
1352.06,18335
1353.29,18399
1354.52,18446
1355.76,18254
1356.99,18542
1358.22,18354
1359.45,18395
1360.68,18631
1361.91,18401
1363.14,18533
1364.38,18378
1365.61,18316
1366.84,18335
1368.06,18400
1369.29,18452
1370.52,18446
1371.75,18456
1372.98,18515
1374.21,18347
1375.43,18399
1376.66,18530
1377.89,18437
1379.12,18600
1380.34,18945
1381.57,19168
1382.79,19459
1384.02,19179
1385.24,18892
1386.47,18744
1387.69,18620
1388.92,18230
1390.14,18204
1391.36,18228
1392.59,18066
1393.81,18086
1395.03,18067
1396.26,18011
1397.48,18031
1398.7,17939
1399.92,17925
1401.14,17883
1402.36,17942
1403.58,17808
1404.8,17762
1406.02,17734
1407.24,17699
1408.46,17776
1409.68,17976
1410.9,17941
1412.11,17616
1413.33,17671
1414.55,17660
1415.77,17470
1416.98,17534
1418.2,17577
1419.42,17640
1420.63,18100
1421.85,18430
1423.06,19770
1424.28,20353
1425.49,19448
1426.71,18624
1427.92,18214
1429.13,17984
1430.35,18004
1431.56,17968
1432.77,17996
1433.99,17959
1435.2,17938
1436.41,17681
1437.62,17513
1438.83,17434
1440.04,17297
1441.25,17116
1442.46,17058
1443.67,16851
1444.88,16957
1446.09,16893
1447.3,17045
1448.51,17674
1449.72,19259
1450.93,18130
1452.13,17414
1453.34,16891
1454.55,16516
1455.75,16444
1456.96,16535
1458.17,16448
1459.37,16310
1460.58,16269
1461.78,16296
1462.99,16466
1464.19,16514
1465.4,16537
1466.6,16295
1467.81,16003
1469.01,15705
1470.21,15783
1471.41,15466
1472.62,15645
1473.82,15652
1475.02,15587
1476.22,15465
1477.42,15363
1478.62,15282
1479.82,15166
1481.02,15127
1482.22,15235
1483.42,15078
1484.62,15054
1485.82,14815
1487.02,14839
1488.22,15016
1489.42,14713
1490.62,14724
1491.81,14702
1493.01,14529
1494.21,14636
1495.4,14431
1496.6,14422
1497.79,14255
1498.99,14270
1500.19,14185
1501.38,14143
1502.58,14071
1503.77,14136
1504.96,14135
1506.16,14231
1507.35,14070
1508.54,14134
1509.74,14093
1510.93,13910
1512.12,14026
1513.31,13937
1514.5,13946
1515.7,13976
1516.89,13806
1518.08,13842
1519.27,13689
1520.46,13698
1521.65,13604
1522.84,13606
1524.03,13793
1525.22,13791
1526.4,13921
1527.59,13950
1528.78,14026
1529.97,14131
1531.15,14476
1532.34,14232
1533.53,13660
1534.71,13618
1535.9,13393
1537.09,13089
1538.27,12990
1539.46,13059
1540.64,13034
1541.83,12816
1543.01,12922
1544.19,12835
1545.38,12680
1546.56,12783
1547.74,12961
1548.93,12892
1550.11,12862
1551.29,12798
1552.47,12746
1553.65,12568
1554.84,12441
1556.02,12593
1557.2,12405
1558.38,12327
1559.56,12318
1560.74,12325
1561.92,12289
1563.1,12146
1564.27,12060
1565.45,12023
1566.63,11971
1567.81,11914
1568.99,11994
1570.16,11970
1571.34,11974
1572.52,12003
1573.69,11708
1574.87,11903
1576.04,11896
1577.22,11761
1578.4,11740
1579.57,11833
1580.74,11673
1581.92,11380
1583.09,11400
1584.27,11304
1585.44,11235
1586.61,11290
1587.79,11243
1588.96,11334
1590.13,11256
1591.3,11055
1592.47,11147
1593.64,11252
1594.81,11080
1595.99,10975
1597.16,11065
1598.33,11018
1599.5,10985
1600.66,11041
1601.83,10957
1603,11104
1604.17,10937
1605.34,11066
1606.51,11092
1607.67,11056
1608.84,11097
1610.01,10956
1611.18,10838
1612.34,10906
1613.51,10644
1614.67,10626
1615.84,10580
1617,10493
1618.17,10461
1619.33,10519
1620.5,10445
1621.66,10380
1622.83,10476
1623.99,10380
1625.15,10369
1626.32,10392
1627.48,10399
1628.64,10543
1629.8,10660
1630.96,10802
1632.13,10897
1633.29,11128
1634.45,11255
1635.61,11504
1636.77,11882
1637.93,11999
1639.09,12146
1640.25,12048
1641.4,11862
1642.56,11530
1643.72,11200
1644.88,11061
1646.04,10880
1647.2,10839
1648.35,10848
1649.51,10728
1650.67,10859
1651.82,10747
1652.98,10639
1654.13,10535
1655.29,10316
1656.44,10040
1657.6,9805
1658.75,9644
1659.91,9555
1661.06,9519
1662.21,9500
1663.37,9386
1664.52,9663
1665.67,9343
1666.83,9410
1667.98,9385
1669.13,9315
1670.28,9315
1671.43,9379
1672.58,9614
1673.73,9538
1674.89,9742
1676.04,9830
1677.18,9791
1678.33,10145
1679.48,10398
1680.63,10803
1681.78,11468
1682.93,12018
1684.08,13145
1685.23,14145
1686.37,13624
1687.52,11623
1688.67,11158
1689.81,11695
1690.96,11596
1692.11,11126
1693.25,10635
1694.4,10274
1695.54,9792
1696.69,9556
1697.83,9445
1698.97,9216
1700.12,9069
1701.26,9019
1702.41,8921
1703.55,8824
1704.69,8592
1705.83,8654
1706.98,8501
1708.12,8469
1709.26,8557
1710.4,8360
1711.54,8198
1712.68,8317
1713.82,8231
1714.96,8261
1716.1,8265
1717.24,8240
1718.38,8130
1719.52,8125
1720.66,8076
1721.8,7880
1722.94,7886
1724.07,7976
1725.21,7985
1726.35,7993
1727.49,7908
1728.62,7755
1729.76,7887
1730.89,7743
1732.03,7815
1733.17,7741
1734.3,7849
1735.44,7766
1736.57,7707
1737.7,7682
1738.84,7710
1739.97,7787
1741.11,7766
1742.24,7744
1743.37,7667
1744.5,7599
1745.64,7687
1746.77,7638
1747.9,7626
1749.03,7548
1750.16,7588
1751.29,7553
1752.42,7531
1753.56,7502
1754.69,7585
1755.81,7477
1756.94,7475
1758.07,7567
1759.2,7487
1760.33,7509
1761.46,7368
1762.59,7452
1763.71,7528
1764.84,7473
1765.97,8639
1767.1,8896
1768.22,8499
1769.35,8063
1770.48,8577
1771.6,8966
1772.73,8886
1773.85,8608
1774.98,8262
1776.1,7966
1777.23,7679
1778.35,7585
1779.47,7535
1780.6,7399
1781.72,7260
1782.84,7315
1783.96,7313
1785.09,7277
1786.21,7154
1787.33,7148
1788.45,7323
1789.57,7128
1790.69,7103
1791.81,7183
1792.93,7120
1794.05,7118
1795.17,7102
1796.29,7105
1797.41,7041
1798.53,7231
1799.65,7183
1800.77,7102
1801.89,7111
1803,7088
1804.12,7125
1805.24,7076
1806.36,7011
1807.47,7051
1808.59,7067
1809.71,7134
1810.82,7148
1811.94,7059
1813.05,6973
1814.17,7006
1815.28,6950
1816.4,6974
1817.51,6886
1818.62,7023
1819.74,6953
1820.85,7099
1821.96,6875
1823.08,6858
1824.19,6936
1825.3,6895
1826.41,6902
1827.52,6931
1828.63,6975
1829.75,6980
1830.86,6888
1831.97,6930
1833.08,7050
1834.19,6830
1835.3,6788
1836.4,6847
1837.51,6870
1838.62,6878
1839.73,6932
1840.84,6866
1841.95,6914
1843.05,6879
1844.16,6888
1845.27,6948
1846.38,6963
1847.48,6847
1848.59,6897
1849.69,6894
1850.8,6852
1851.91,6924
1853.01,6971
1854.11,6891
1855.22,6823
1856.32,6922
1857.43,6817
1858.53,6860
1859.63,6732
1860.74,6820
1861.84,6755
1862.94,6828
1864.05,6732
1865.15,6816
1866.25,6819
1867.35,6859
1868.45,6767
1869.55,6870
1870.65,6794
1871.75,6793
1872.85,6888
1873.95,6861
1875.05,6789
1876.15,6844
1877.25,6787
1878.35,6879
1879.45,6830
1880.55,6774
1881.64,6826
1882.74,6804
1883.84,6808
1884.94,6874
1886.03,6790
1887.13,6823
1888.22,6790
1889.32,6814
1890.42,6773
1891.51,6878
1892.61,6895
1893.7,6887
1894.8,6797
1895.89,6784
1896.98,6804
1898.08,6858
1899.17,6840
1900.26,6864
1901.36,6803
1902.45,6891
1903.54,6872
1904.63,6908
1905.73,6806
1906.82,6914
1907.91,6791
1909,6964
1910.09,6891
1911.18,6859
1912.27,6806
1913.36,6886
1914.45,6966
1915.54,6999
1916.63,6981
1917.72,7021
1918.8,6968
1919.89,6918
1920.98,7011
1922.07,6879
1923.16,6870
1924.24,6986
1925.33,6940
1926.42,6953
1927.5,6950
1928.59,6982
1929.67,7014
1930.76,7009
1931.84,7116
1932.93,7081
1934.01,7170
1935.1,7127
1936.18,7332
1937.27,7283
1938.35,7274
1939.43,7102
1940.52,7193
1941.6,7242
1942.68,7097
1943.76,7090
1944.84,7059
1945.93,7000
1947.01,7079
1948.09,6976
1949.17,7063
1950.25,6964
1951.33,6988
1952.41,6976
1953.49,7095
1954.57,7083
1955.65,7073
1956.73,7121
1957.81,7101
1958.88,7063
1959.96,7108
1961.04,7038
1962.12,7107
1963.19,7056
1964.27,7030
1965.35,7047
1966.43,7238
1967.5,7099
1968.58,7141
1969.65,7095
1970.73,7079
1971.8,7223
1972.88,7251
1973.95,7178
1975.03,7248
1976.1,7175
1977.17,7151
1978.25,7156
1979.32,7172
1980.39,7214
1981.47,7261
1982.54,7267
1983.61,7313
1984.68,7374
1985.75,7260
1986.83,7258
1987.9,7200
1988.97,7265
1990.04,7218
1991.11,7254
1992.18,7302
1993.25,7316
1994.32,7352
1995.39,7318
1996.46,7176
1997.52,7284
1998.59,7271
1999.66,7311
2000.73,7311
2001.8,7288
2002.86,7337
2003.93,7328
2005,7457
2006.06,7346
2007.13,7383
2008.2,7469
2009.26,7451
2010.33,7495
2011.39,7436
2012.46,7465
2013.52,7396
2014.59,7414
2015.65,7357
2016.71,7367
2017.78,7475
2018.84,7490
2019.9,7538
2020.97,7509
2022.03,7534
2023.09,7499
2024.15,7488
2025.21,7552
2026.28,7591
2027.34,7499
2028.4,7538
2029.46,7626
2030.52,7480
2031.58,7599
2032.64,7708
2033.7,7638
2034.76,7635