File: example raman data/GM1_Fiber002.V2_Black_C85umxD12.5_600sec.csv
340.52,38391
342.025,37862
343.528,38080
345.032,37828
346.535,38048
348.038,37828
349.54,37759
351.042,37826
352.543,37691
354.044,37956
355.545,38001
357.045,37896
358.545,37869
360.044,37863
361.543,37958
363.041,37979
364.539,38000
366.037,37915
367.534,37784
369.031,37981
370.528,37901
372.024,37993
373.519,38258
375.015,38598
376.509,38680
378.004,38373
379.498,38703
380.991,39367
382.485,39927
383.977,40007
385.47,41244
386.962,42375
388.453,44946
389.944,48651
391.435,50488
392.925,45336
394.415,40121
395.905,38438
397.394,37667
398.882,37550
400.371,37155
401.858,36761
403.346,36673
404.833,36635
406.319,36273
407.806,36425
409.291,36247
410.777,36359
412.262,36067
413.746,36096
415.231,35948
416.714,35983
418.198,36231
419.681,36185
421.163,36045
422.645,35735
424.127,35727
425.608,35498
427.089,35321
428.57,35560
430.05,35471
431.53,35395
433.009,35526
434.488,35439
435.966,35369
437.444,35141
438.922,35026
440.399,35128
441.876,35021
443.353,34840
444.829,34930
446.304,34718
447.78,34745
449.254,34548
450.729,34650
452.203,34443
453.677,34898
455.15,34462
456.623,34654
458.095,34275
459.567,34432
461.039,34270
462.51,34454
463.981,34370
465.451,34174
466.921,34216
468.391,34430
469.86,34376
471.329,34234
472.797,34158
474.265,34354
475.733,34616
477.2,34563
478.667,34090
480.133,34050
481.599,33998
483.065,33955
484.53,33919
485.995,33863
487.459,34046
488.923,34327
490.387,34108
491.85,34022
493.313,34702
494.775,34636
496.237,33863
497.699,33833
499.16,33655
500.621,33713
502.081,33518
503.541,33487
505.001,33569
506.46,33311
507.919,33342
509.377,33204
510.835,33280
512.293,33381
513.75,33314
515.207,33141
516.663,32998
518.119,32848
519.575,32640
521.03,32627
522.485,32822
523.939,32508
525.393,32943
526.847,32758
528.3,32766
529.753,32397
531.205,32527
532.657,32567
534.109,32517
535.56,32652
537.011,32437
538.462,32656
539.912,32383
541.361,32240
542.811,32180
544.26,32251
545.708,32490
547.156,32340
548.604,32298
550.051,32140
551.498,32524
552.945,32427
554.391,32409
555.837,32277
557.282,32277
558.727,32336
560.171,32250
561.616,32424
563.059,32358
564.503,32539
565.946,32292
567.388,32263
568.831,32156
570.272,32108
571.714,32132
573.155,32331
574.595,32366
576.036,32465
577.476,32493
578.915,32535
580.354,32493
581.793,32791
583.231,32642
584.669,32735
586.106,32270
587.544,31914
588.98,32222
590.417,32284
591.853,32059
593.288,32092
594.723,32316
596.158,31904
597.592,32006
599.026,31846
600.46,32481
601.893,32108
603.326,32267
604.758,32725
606.19,32200
607.622,31668
609.053,31373
610.484,31576
611.915,31499
613.345,31321
614.775,31359
616.204,31347
617.633,31008
619.061,31160
620.49,30968
621.917,30564
623.345,30701
624.772,30873
626.198,30811
627.625,30714
629.05,30535
630.476,30769
631.901,30788
633.326,30733
634.75,30632
636.174,30520
637.597,30727
639.021,30348
640.443,30441
641.866,30429
643.288,30585
644.709,30596
646.13,30652
647.551,31082
648.972,30756
650.392,35755
651.811,43759
653.231,32525
654.65,31821
656.068,31491
657.486,32955
658.904,30559
660.321,30074
661.738,30071
663.155,30291
664.571,30268
665.987,30179
667.403,30113
668.818,30214
670.232,30271
671.647,30039
673.061,29930
674.474,30044
675.887,29886
677.3,30187
678.712,30181
680.124,30215
681.536,29818
682.947,30006
684.358,29997
685.769,29844
687.179,30043
688.588,29856
689.998,29874
691.407,29865
692.815,29668
694.224,29943
695.631,29778
697.039,29834
698.446,29533
699.853,29793
701.259,29583
702.665,29603
704.07,29496
705.475,29720
706.88,29758
708.285,29785
709.689,29962
711.092,30021
712.496,29993
713.898,30221
715.301,29942
716.703,29790
718.105,29523
719.506,29632
720.907,29393
722.308,29358
723.708,29199
725.108,29309
726.507,29169
727.907,29060
729.305,29022
730.704,29166
732.102,29124
733.499,29129
734.896,29124
736.293,29239
737.69,29056
739.086,29105
740.482,28896
741.877,29147
743.272,28914
744.666,28976
746.061,29312
747.454,29129
748.848,28856
750.241,29126
751.634,29407
753.026,29352
754.418,29273
755.81,28859
757.201,29077
758.592,29179
759.982,28924
761.372,28755
762.762,29018
764.151,28929
765.54,28695
766.929,28771
768.317,28662
769.705,28725
771.092,28708
772.479,28587
773.866,28198
775.253,28383
776.639,28352
778.024,28189
779.409,28287
780.794,27891
782.179,28003
783.563,28103
784.947,28176
786.33,28298
787.713,28030
789.096,28305
790.478,27975
791.86,28102
793.241,27936
794.622,27873
796.003,27788
797.384,27707
798.764,27818
800.143,27782
801.523,27832
802.902,27713
804.28,27757
805.658,27722
807.036,27725
808.414,27854
809.791,27623
811.167,27646
812.544,27461
813.92,27535
815.295,27529
816.67,27418
818.045,27643
819.42,27570
820.794,27509
822.168,27590
823.541,27667
824.914,27672
826.287,27649
827.659,27309
829.031,27359
830.402,27124
831.774,27215
833.144,27096
834.515,27215
835.885,27215
837.255,27165
838.624,27033
839.993,27104
841.362,27080
842.73,27209
844.098,27125
845.465,27184
846.832,27080
848.199,27001
849.565,26937
850.931,27028
852.297,27115
853.662,26847
855.027,26915
856.392,26941
857.756,26978
859.12,26826
860.484,27077
861.847,26752
863.209,26815
864.572,26911
865.934,26873
867.295,26931
868.657,27071
870.018,26659
871.378,26639
872.738,26943
874.098,26954
875.458,26590
876.817,26589
878.176,26635
879.534,26539
880.892,26681
882.25,26686
883.607,26942
884.964,26756
886.32,26384
887.677,26440
889.033,26196
890.388,26423
891.743,26296
893.098,26117
894.452,26129
895.806,26139
897.16,25916
898.513,25680
899.866,26100
901.219,26363
902.571,25980
903.923,26149
905.274,26100
906.626,26207
907.976,26175
909.327,26064
910.677,25889
912.027,26431
913.376,26375
914.725,26359
916.074,26155
917.422,26402
918.77,26402
920.117,26539
921.464,26271
922.811,26358
924.158,25907
925.504,26050
926.85,26143
928.195,26264
929.54,26114
930.885,26100
932.229,25962
933.573,26050
934.916,26022
936.26,26072
937.603,25990
938.945,26075
940.287,25943
941.629,26228
942.971,26363
944.312,25958
945.652,25950
946.993,25761
948.333,25740
949.672,25459
951.012,25753
952.351,25695
953.689,25645
955.028,25532
956.365,25579
957.703,25702
959.04,25689
960.377,25696
961.713,25574
963.049,25890
964.385,25424
965.721,25528
967.056,25538
968.39,25687
969.725,25558
971.059,25673
972.392,25526
973.725,25273
975.058,25207
976.391,25408
977.723,25208
979.055,25026
980.386,25132
981.718,25247
983.048,25318
984.379,25109
985.709,25173
987.039,24975
988.368,24983
989.697,24962
991.026,25045
992.354,24942
993.682,24829
995.009,24844
996.337,24743
997.664,24760
998.99,24852
1000.32,24646
1001.64,24663
1002.97,24737
1004.29,24743
1005.62,24893
1006.94,24592
1008.27,24527
1009.59,24613
1010.91,24643
1012.24,24376
1013.56,24327
1014.88,24383
1016.2,24455
1017.52,24187
1018.85,24281
1020.17,24337
1021.49,24423
1022.81,24408
1024.13,24539
1025.45,24482
1026.77,24395
1028.09,24658
1029.4,24965
1030.72,25154
1032.04,25127
1033.36,25306
1034.67,25174
1035.99,24837
1037.31,24746
1038.62,24656
1039.94,24718
1041.25,24304
1042.57,24495
1043.88,24403
1045.2,24350
1046.51,24214
1047.83,24062
1049.14,24161
1050.45,24246
1051.76,24149
1053.08,24186
1054.39,24051
1055.7,23951
1057.01,24123
1058.32,24544
1059.63,24372
1060.94,24105
1062.25,24181
1063.56,24118
1064.87,24178
1066.18,24267
1067.49,24123
1068.8,24127
1070.1,24121
1071.41,24011
1072.72,23911
1074.02,24106
1075.33,24205
1076.64,24172
1077.94,23974
1079.25,23862
1080.55,23957
1081.86,24172
1083.16,24184
1084.47,24157
1085.77,24221
1087.07,23991
1088.37,23888
1089.68,24057
1090.98,24207
1092.28,24156
1093.58,24282
1094.88,24561
1096.18,24332
1097.49,24550
1098.79,24626
1100.09,24688
1101.38,24798
1102.68,24799
1103.98,24851
1105.28,24726
1106.58,24269
1107.88,24278
1109.17,24264
1110.47,23799
1111.77,23965
1113.06,23676
1114.36,23763
1115.66,23712
1116.95,23880
1118.25,23660
1119.54,23761
1120.83,23910
1122.13,23847
1123.42,23922
1124.72,24037
1126.01,24146
1127.3,24237
1128.59,24528
1129.89,24734
1131.18,24850
1132.47,24862
1133.76,24895
1135.05,24783
1136.34,24370
1137.63,24257
1138.92,24178
1140.21,23985
1141.5,23884
1142.79,23966
1144.07,24233
1145.36,24508
1146.65,25319
1147.94,25014
1149.22,24183
1150.51,24261
1151.8,24431
1153.08,24270
1154.37,24378
1155.65,24367
1156.94,24265
1158.22,24449
1159.5,24051
1160.79,23914
1162.07,24190
1163.36,24067
1164.64,24154
1165.92,23867
1167.2,23799
1168.48,23779
1169.77,23559
1171.05,23730
1172.33,23484
1173.61,23605
1174.89,23302
1176.17,23257
1177.45,23511
1178.73,23365
1180,23400
1181.28,22976
1182.56,23521
1183.84,23162
1185.12,23192
1186.39,23143
1187.67,23283
1188.95,23319
1190.22,23191
1191.5,23062
1192.77,22960
1194.05,23143
1195.32,22943
1196.6,23155
1197.87,22904
1199.14,23074
1200.42,22872
1201.69,23186
1202.96,22808
1204.24,22920
1205.51,22700
1206.78,22772
1208.05,22815
1209.32,22813
1210.59,22969
1211.86,22845
1213.13,22819
1214.4,22580
1215.67,22714
1216.94,22939
1218.21,22749
1219.48,22739
1220.75,22696
1222.01,22748
1223.28,22761
1224.55,22838
1225.81,22991
1227.08,22710
1228.35,22628
1229.61,22639
1230.88,22495
1232.14,22618
1233.41,22416
1234.67,22289
1235.94,22408
1237.2,22414
1238.46,22691
1239.73,22641
1240.99,22547
1242.25,22466
1243.51,22527
1244.77,24342
1246.04,22786
1247.3,22723
1248.56,22736
1249.82,22802
1251.08,22713
1252.34,22805
1253.6,22753
1254.86,22693
1256.12,22713
1257.37,22676
1258.63,24381
1259.89,24638
1261.15,24441
1262.4,28952
1263.66,25831
1264.92,23567
1266.17,23197
1267.43,23062
1268.68,22816
1269.94,22891
1271.19,22708
1272.45,22723
1273.7,22938
1274.96,22833
1276.21,22819
1277.46,23158
1278.72,22715
1279.97,22900
1281.22,23001
1282.47,22894
1283.72,22879
1284.98,22934
1286.23,23136
1287.48,23296
1288.73,23224
1289.98,23328
1291.23,23317
1292.48,23318
1293.72,23369
1294.97,23424
1296.22,23956
1297.47,23709
1298.72,24105
1299.96,24272
1301.21,24396
1302.46,24434
1303.7,23959
1304.95,23850
1306.2,23817
1307.44,23999
1308.69,23649
1309.93,24073
1311.17,24085
1312.42,24058
1313.66,23850
1314.91,23702
1316.15,23379
1317.39,23440
1318.63,23506
1319.88,23389
1321.12,23566
1322.36,23573
1323.6,23312
1324.84,23487
1326.08,23302
1327.32,23585
1328.56,23424
1329.8,23326
1331.04,23274
1332.28,23759
1333.52,23569
1334.76,23467
1335.99,23523
1337.23,23625
1338.47,23421
1339.7,23200
1340.94,23135
1342.18,23002
1343.41,23280
1344.65,23232
1345.88,23038
1347.12,23115
1348.35,23025
1349.59,23081
1350.82,22965
1352.06,23245
1353.29,23002
1354.52,23182
1355.76,23262
1356.99,23118
1358.22,23184
1359.45,23283
1360.68,23192
1361.91,23302
1363.14,23495
1364.38,23473
1365.61,23599
1366.84,23718
1368.06,23638
1369.29,23875
1370.52,23818
1371.75,23865
1372.98,23844
1374.21,23678
1375.43,23396
1376.66,23312
1377.89,23455
1379.12,23276
1380.34,23259
1381.57,23383
1382.79,23277
1384.02,23295
1385.24,23496
1386.47,23213
1387.69,23138
1388.92,23142
1390.14,23081
1391.36,23015
1392.59,22934
1393.81,23044
1395.03,22886
1396.26,22801
1397.48,22862
1398.7,22851
1399.92,22725
1401.14,24573
1402.36,22905
1403.58,22638
1404.8,22675
1406.02,22552
1407.24,22540
1408.46,22448
1409.68,22626
1410.9,22752
1412.11,22774
1413.33,22500
1414.55,22616
1415.77,22519
1416.98,22421
1418.2,22527
1419.42,22627
1420.63,23363
1421.85,24569
1423.06,27000
1424.28,28001
1425.49,26364
1426.71,24435
1427.92,23545
1429.13,23042
1430.35,22820
1431.56,22643
1432.77,22434
1433.99,22530
1435.2,22486
1436.41,22384
1437.62,22319
1438.83,22450
1440.04,22193
1441.25,21941
1442.46,21799
1443.67,21741
1444.88,21710
1446.09,21787
1447.3,22336
1448.51,23936
1449.72,26908
1450.93,24795
1452.13,23302
1453.34,22247
1454.55,21820
1455.75,21588
1456.96,21559
1458.17,21344
1459.37,21336
1460.58,21291
1461.78,21569
1462.99,21656
1464.19,21959
1465.4,22042
1466.6,21293
1467.81,21001
1469.01,20796
1470.21,20684
1471.41,20541
1472.62,20309
1473.82,20309
1475.02,20158
1476.22,19988
1477.42,19835
1478.62,20099
1479.82,19891
1481.02,19886
1482.22,19751
1483.42,19734
1484.62,19800
1485.82,19664
1487.02,19756
1488.22,19576
1489.42,19515
1490.62,19455
1491.81,19628
1493.01,19529
1494.21,19449
1495.4,19544
1496.6,19579
1497.79,19524
1498.99,19760
1500.19,19708
1501.38,19537
1502.58,19707
1503.77,19895
1504.96,19612
1506.16,19706
1507.35,19644
1508.54,19746
1509.74,19626
1510.93,19714
1512.12,19634
1513.31,19437
1514.5,19705
1515.7,19672
1516.89,19440
1518.08,19271
1519.27,19187
1520.46,19064
1521.65,19031
1522.84,18909
1524.03,19068
1525.22,19083
1526.4,19216
1527.59,18903
1528.78,18957
1529.97,19256
1531.15,20026
1532.34,19681
1533.53,18975
1534.71,18449
1535.9,18117
1537.09,17987
1538.27,17921
1539.46,17852
1540.64,17848
1541.83,17890
1543.01,17575
1544.19,17572
1545.38,17573
1546.56,17571
1547.74,17387
1548.93,17448
1550.11,17296
1551.29,17182
1552.47,17176
1553.65,17245
1554.84,17198
1556.02,17265
1557.2,17144
1558.38,17028
1559.56,16999
1560.74,17096
1561.92,17146
1563.1,17107
1564.27,16940
1565.45,16772
1566.63,16584
1567.81,16832
1568.99,16840
1570.16,16990
1571.34,16844
1572.52,16901
1573.69,16812
1574.87,16906
1576.04,16964
1577.22,16884
1578.4,16713
1579.57,16877
1580.74,16800
1581.92,16443
1583.09,16458
1584.27,16248
1585.44,16287
1586.61,16277
1587.79,16070
1588.96,16184
1590.13,16132
1591.3,16136
1592.47,16102
1593.64,16022
1594.81,15991
1595.99,15954
1597.16,16103
1598.33,16018
1599.5,16121
1600.66,16097
1601.83,16079
1603,16275
1604.17,16315
1605.34,16338
1606.51,16418
1607.67,16353
1608.84,16452
1610.01,16191
1611.18,16092
1612.34,15801
1613.51,15801
1614.67,15706
1615.84,15513
1617,15627
1618.17,15411
1619.33,15367
1620.5,15464
1621.66,15488
1622.83,15266
1623.99,15100
1625.15,15199
1626.32,15131
1627.48,15141
1628.64,15012
1629.8,15100
1630.96,15128
1632.13,15039
1633.29,14934
1634.45,14874
1635.61,14992
1636.77,14772
1637.93,15098
1639.09,14825
1640.25,14991
1641.4,16550
1642.56,15102
1643.72,14764
1644.88,14724
1646.04,14661
1647.2,14598
1648.35,14627
1649.51,14748
1650.67,14730
1651.82,14609
1652.98,14679
1654.13,14665
1655.29,14718
1656.44,14522
1657.6,14741
1658.75,14437
1659.91,14669
1661.06,14812
1662.21,14720
1663.37,14742
1664.52,14863
1665.67,14975
1666.83,14911
1667.98,14847
1669.13,14926
1670.28,15087
1671.43,15284
1672.58,15481
1673.73,15423
1674.89,15633
1676.04,16028
1677.18,16211
1678.33,16724
1679.48,17227
1680.63,18108
1681.78,19004
1682.93,20803
1684.08,22699
1685.23,24670
1686.37,23893
1687.52,20201
1688.67,19036
1689.81,19676
1690.96,19307
1692.11,19020
1693.25,18071
1694.4,17146
1695.54,16311
1696.69,16097
1697.83,15498
1698.97,15458
1700.12,15016
1701.26,14865
1702.41,14795
1703.55,14613
1704.69,14496
1705.83,14347
1706.98,14137
1708.12,14150
1709.26,14050
1710.4,13936
1711.54,13873
1712.68,13913
1713.82,13701
1714.96,13827
1716.1,13757
1717.24,13596
1718.38,13491
1719.52,13555
1720.66,13407
1721.8,13443
1722.94,13354
1724.07,13491
1725.21,13406
1726.35,13297
1727.49,13311
1728.62,13348
1729.76,13275
1730.89,13274
1732.03,13284
1733.17,13302
1734.3,13305
1735.44,13161
1736.57,13006
1737.7,13100
1738.84,12990
1739.97,13062
1741.11,13086
1742.24,13217
1743.37,13016
1744.5,13039
1745.64,13020
1746.77,13159
1747.9,12941
1749.03,12942
1750.16,13092
1751.29,13020
1752.42,12843
1753.56,12771
1754.69,12898
1755.81,12930
1756.94,12906
1758.07,12830
1759.2,12878
1760.33,12967
1761.46,13114
1762.59,12946
1763.71,13123
1764.84,13156
1765.97,13182
1767.1,13392
1768.22,13582
1769.35,14239
1770.48,15294
1771.6,16134
1772.73,15963
1773.85,15433
1774.98,14475
1776.1,13971
1777.23,13469
1778.35,13440
1779.47,13184
1780.6,12910
1781.72,12910
1782.84,12918
1783.96,12775
1785.09,12734
1786.21,12666
1787.33,12717
1788.45,12697
1789.57,12517
1790.69,12606
1791.81,12786
1792.93,12531
1794.05,12488
1795.17,12699
1796.29,12522
1797.41,12782
1798.53,12672
1799.65,12725
1800.77,12534
1801.89,12682
1803,12537
1804.12,12681
1805.24,12577
1806.36,12560
1807.47,12517
1808.59,12599
1809.71,12624
1810.82,12578
1811.94,12362
1813.05,12536
1814.17,12390
1815.28,12438
1816.4,12429
1817.51,12460
1818.62,12399
1819.74,12364
1820.85,12490
1821.96,12387
1823.08,12465
1824.19,12313
1825.3,12529
1826.41,12455
1827.52,12436
1828.63,12425
1829.75,12434
1830.86,12495
1831.97,12427
1833.08,12420
1834.19,12375
1835.3,12574
1836.4,12319
1837.51,12452
1838.62,12524
1839.73,12374
1840.84,12408
1841.95,12417
1843.05,12423
1844.16,12293
1845.27,12495
1846.38,12400
1847.48,12323
1848.59,12499
1849.69,12552
1850.8,12414
1851.91,12446
1853.01,12489
1854.11,12431
1855.22,12439
1856.32,12358
1857.43,12378
1858.53,12226
1859.63,12286
1860.74,12050
1861.84,12214
1862.94,12159
1864.05,12315
1865.15,12347
1866.25,12186
1867.35,12432
1868.45,12207
1869.55,12346
1870.65,12475
1871.75,12455
1872.85,12304
1873.95,12387
1875.05,12384
1876.15,12255
1877.25,12229
1878.35,12438
1879.45,12491
1880.55,12274
1881.64,12336
1882.74,12526
1883.84,12412
1884.94,12413
1886.03,12376
1887.13,12430
1888.22,12477
1889.32,12371
1890.42,12366
1891.51,12443
1892.61,12416
1893.7,12485
1894.8,12367
1895.89,12387
1896.98,12516
1898.08,12516
1899.17,12619
1900.26,12360
1901.36,12578
1902.45,12471
1903.54,12651
1904.63,12532
1905.73,12471
1906.82,12600
1907.91,12704
1909,12596
1910.09,12602
1911.18,12583
1912.27,12610
1913.36,12612
1914.45,12588
1915.54,12642
1916.63,12674
1917.72,12779
1918.8,12810
1919.89,12709
1920.98,12635
1922.07,12768
1923.16,12634
1924.24,12668
1925.33,12564
1926.42,12714
1927.5,12646
1928.59,12664
1929.67,12731
1930.76,12726
1931.84,12932
1932.93,12929
1934.01,13144
1935.1,13224
1936.18,13302
1937.27,13339
1938.35,13409
1939.43,13094
1940.52,13224
1941.6,13068
1942.68,13104
1943.76,12966
1944.84,12963
1945.93,13022
1947.01,12770
1948.09,12923
1949.17,12928
1950.25,12915
1951.33,12921
1952.41,13028
1953.49,13104
1954.57,13079
1955.65,12996
1956.73,12913
1957.81,12935
1958.88,12866
1959.96,13134
1961.04,12875
1962.12,12974
1963.19,12901
1964.27,12994
1965.35,13101
1966.43,12929
1967.5,13034
1968.58,13014
1969.65,17943
1970.73,13437
1971.8,13146
1972.88,13178
1973.95,13190
1975.03,13193
1976.1,13267
1977.17,13094
1978.25,13078
1979.32,13286
1980.39,13284
1981.47,13271
1982.54,13247
1983.61,13222
1984.68,13171
1985.75,13316
1986.83,13267
1987.9,13345
1988.97,13381
1990.04,13219
1991.11,13185
1992.18,13307
1993.25,13334
1994.32,13364
1995.39,13556
1996.46,13430
1997.52,13318
1998.59,13408
1999.66,13358
2000.73,13342
2001.8,13407
2002.86,13400
2003.93,13418
2005,13458
2006.06,13555
2007.13,13534
2008.2,13546
2009.26,13561
2010.33,13606
2011.39,13686
2012.46,13635
2013.52,13745
2014.59,13698
2015.65,13613
2016.71,13687
2017.78,13742
2018.84,13691
2019.9,13791
2020.97,13688
2022.03,13715
2023.09,13807
2024.15,13826
2025.21,13783
2026.28,13777
2027.34,13792
2028.4,13813
2029.46,13833
2030.52,13998
2031.58,14009
2032.64,13957
2033.7,13870
2034.76,13895