File: example raman data/GM1_Fiber002.V6_Black_C85umxD12.5_18sec.csv
269.58,50817
271.101,50630
272.622,50556
274.142,50531
275.662,50545
277.181,50548
278.7,50625
280.219,50528
281.737,50721
283.254,50419
284.772,50304
286.288,50392
287.805,50360
289.321,50184
290.837,50209
292.352,50252
293.866,50003
295.381,50217
296.895,50248
298.408,49856
299.921,49972
301.434,50132
302.946,50139
304.458,49783
305.969,49507
307.48,49797
308.991,50094
310.501,49786
312.011,49860
313.52,50116
315.029,49906
316.538,49819
318.046,50023
319.553,49950
321.061,49981
322.567,49895
324.074,49832
325.58,49729
327.085,49834
328.591,49777
330.095,49645
331.6,49273
333.104,49791
334.607,49418
336.11,49396
337.613,49344
339.115,49379
340.617,49608
342.118,49265
343.619,49063
345.12,49276
346.62,49650
348.12,49185
349.619,49205
351.118,49041
352.617,48911
354.115,48995
355.612,48968
357.11,48854
358.607,48678
360.103,49077
361.599,48640
363.095,48495
364.59,48475
366.085,48755
367.579,48390
369.073,48895
370.567,48689
372.06,48701
373.553,48460
375.045,48466
376.537,48290
378.028,48391
379.52,48395
381.01,48018
382.5,48075
383.99,48270
385.48,47985
386.969,47901
388.458,47847
389.946,48175
391.434,47762
392.921,47793
394.408,47843
395.895,47953
397.381,47834
398.867,47662
400.352,47852
401.837,47508
403.321,47660
404.806,47581
406.289,47691
407.773,47513
409.256,47605
410.738,47536
412.22,47604
413.702,47393
415.183,47242
416.664,47361
418.145,47491
419.625,47134
421.104,47221
422.584,47026
424.062,47036
425.541,47395
427.019,47209
428.496,46946
429.974,46767
431.451,46897
432.927,46843
434.403,46821
435.879,46918
437.354,46931
438.829,46616
440.303,46631
441.777,46472
443.251,46586
444.724,46370
446.196,46406
447.669,46441
449.141,46624
450.612,46483
452.083,46501
453.554,46388
455.025,46573
456.495,46395
457.964,46092
459.433,46143
460.902,46221
462.37,46235
463.838,46328
465.306,46187
466.773,46193
468.24,46345
469.706,45925
471.172,46287
472.637,46242
474.102,46272
475.567,46103
477.031,46046
478.495,46237
479.959,45930
481.422,45888
482.885,45848
484.347,46181
485.809,45951
487.27,45965
488.732,45799
490.192,46037
491.653,45916
493.113,45772
494.572,45831
496.031,46074
497.49,45607
498.948,45612
500.406,45764
501.864,45727
503.321,45531
504.777,45122
506.234,45403
507.69,45405
509.145,45382
510.6,45714
512.055,45338
513.509,45285
514.963,45244
516.417,45153
517.87,45334
519.323,45231
520.775,44975
522.227,45017
523.679,44705
525.13,45073
526.58,45003
528.031,44618
529.481,44767
530.93,44760
532.379,44506
533.828,44526
535.277,44252
536.725,44475
538.172,44580
539.619,44442
541.066,44434
542.513,44444
543.959,44367
545.404,44148
546.849,44279
548.294,44110
549.739,44195
551.183,44163
552.626,44098
554.07,43986
555.512,43980
556.955,44028
558.397,43775
559.839,43880
561.28,44083
562.721,43914
564.161,44207
565.601,43836
567.041,43738
568.48,43820
569.919,43641
571.358,43866
572.796,43846
574.234,44202
575.671,43536
577.108,43964
578.545,43769
579.981,43809
581.417,43664
582.852,43448
584.287,43340
585.722,43397
587.156,43468
588.59,43310
590.023,43237
591.456,43388
592.889,42981
594.321,43136
595.753,43092
597.185,42942
598.616,42953
600.046,42867
601.477,42893
602.907,42789
604.336,42932
605.765,42551
607.194,42847
608.623,42772
610.051,42803
611.478,42639
612.905,42407
614.332,42445
615.759,42402
617.185,42326
618.61,42598
620.036,42182
621.461,42622
622.885,42467
624.309,42610
625.733,42298
627.156,42336
628.579,42507
630.002,42371
631.424,42415
632.846,42933
634.267,42911
635.688,42982
637.109,42732
638.529,43047
639.949,42905
641.369,42780
642.788,42302
644.206,41656
645.625,41947
647.043,41585
648.46,41782
649.877,41774
651.294,41760
652.711,41747
654.127,41575
655.542,41427
656.958,41614
658.372,41245
659.787,41433
661.201,41433
662.615,41402
664.028,41272
665.441,41384
666.854,41632
668.266,41408
669.678,41523
671.089,41500
672.5,41579
673.911,41569
675.321,41639
676.731,41328
678.14,41233
679.55,41047
680.958,40944
682.367,40927
683.775,40928
685.182,40411
686.589,40539
687.996,40685
689.403,40452
690.809,40403
692.215,40545
693.62,40290
695.025,40303
696.429,40372
697.834,39915
699.237,40206
700.641,39884
702.044,39767
703.446,39784
704.849,39782
706.251,39490
707.652,39716
709.053,39718
710.454,39439
711.854,39568
713.254,39449
714.654,39361
716.053,39053
717.452,39151
718.851,39282
720.249,38938
721.647,38908
723.044,39026
724.441,38767
725.837,38688
727.234,38522
728.63,38778
730.025,38612
731.42,38629
732.815,38557
734.209,38476
735.603,38602
736.997,38499
738.39,38398
739.783,38646
741.175,38439
742.567,38140
743.959,38081
745.35,38315
746.741,38336
748.132,38346
749.522,38325
750.912,38072
752.301,37959
753.69,37775
755.079,37847
756.468,37908
757.855,38054
759.243,38141
760.63,37900
762.017,38065
763.404,37725
764.79,37891
766.175,37846
767.561,37814
768.946,37673
770.33,37694
771.714,37878
773.098,37831
774.482,37633
775.865,37452
777.248,37444
778.63,37199
780.012,37664
781.394,37387
782.775,37123
784.156,37214
785.536,37299
786.916,37351
788.296,36944
789.675,37015
791.054,36998
792.433,37024
793.811,36885
795.189,36613
796.567,36592
797.944,36928
799.321,36676
800.697,36823
802.073,36807
803.449,36367
804.824,36317
806.199,36375
807.574,36509
808.948,36371
810.322,36396
811.695,36023
813.068,36247
814.441,36361
815.813,36294
817.185,36131
818.557,36155
819.928,36016
821.299,35951
822.67,35946
824.04,35652
825.409,35940
826.779,35990
828.148,35982
829.517,35804
830.885,35579
832.253,35797
833.62,35586
834.988,35693
836.354,35963
837.721,35743
839.087,35635
840.453,35699
841.818,35642
843.183,35370
844.548,35611
845.912,35307
847.276,35074
848.639,35330
850.002,35532
851.365,35636
852.728,35656
854.09,35489
855.451,35446
856.813,35237
858.174,35187
859.534,35485
860.895,35390
862.254,35240
863.614,35576
864.973,35266
866.332,35434
867.69,35459
869.048,35333
870.406,35421
871.763,35157
873.12,35245
874.477,35145
875.833,35312
877.189,35157
878.545,35037
879.9,35155
881.255,35240
882.609,34978
883.963,35159
885.317,35033
886.67,34940
888.023,35088
889.376,34885
890.728,35129
892.08,34957
893.431,34663
894.782,34623
896.133,34918
897.484,35050
898.834,34725
900.183,34747
901.533,34737
902.882,34861
904.23,34611
905.579,34858
906.927,34690
908.274,34640
909.621,34155
910.968,34582
912.315,34513
913.661,34480
915.006,34208
916.352,34342
917.697,34018
919.042,34154
920.386,34213
921.73,34284
923.073,34090
924.417,33880
925.76,33959
927.102,34182
928.444,34088
929.786,33889
931.127,33775
932.469,33826
933.809,33819
935.15,33724
936.49,33795
937.829,33531
939.169,33783
940.508,33572
941.846,33660
943.184,33727
944.522,33323
945.86,33750
947.197,33636
948.534,33466
949.87,33495
951.206,33323
952.542,33523
953.877,33380
955.212,33342
956.547,33455
957.881,33326
959.215,33386
960.549,33376
961.882,33235
963.215,33336
964.547,33243
965.879,33275
967.211,33124
968.543,32914
969.874,33114
971.205,32978
972.535,33011
973.865,33171
975.195,32968
976.524,32984
977.853,33031
979.182,32991
980.51,32998
981.838,32530
983.165,32947
984.493,32765
985.819,33018
987.146,32773
988.472,32956
989.798,32887
991.123,32612
992.448,32590
993.773,32651
995.097,32968
996.421,32731
997.745,32786
999.068,32621
1000.39,32679
1001.71,32692
1003.04,32686
1004.36,32702
1005.68,32750
1007,32538
1008.32,32784
1009.64,32551
1010.96,32751
1012.28,32871
1013.6,32474
1014.92,32745
1016.24,32773
1017.56,32934
1018.88,33084
1020.19,33206
1021.51,33536
1022.83,33577
1024.14,33854
1025.46,33964
1026.78,34531
1028.09,34720
1029.41,34348
1030.72,34129
1032.04,34004
1033.35,33569
1034.67,33142
1035.98,32933
1037.29,32371
1038.6,32404
1039.92,32054
1041.23,32070
1042.54,31936
1043.85,31913
1045.16,31773
1046.47,31525
1047.78,31899
1049.09,31502
1050.4,31707
1051.71,31436
1053.02,31477
1054.33,31507
1055.64,31446
1056.95,31489
1058.26,31414
1059.56,31442
1060.87,31280
1062.18,31453
1063.48,31115
1064.79,31048
1066.09,31291
1067.4,31526
1068.7,31353
1070.01,31065
1071.31,31276
1072.62,30987
1073.92,30824
1075.22,30813
1076.53,30806
1077.83,30881
1079.13,30809
1080.43,30718
1081.73,30495
1083.03,30662
1084.33,30835
1085.63,30680
1086.93,30748
1088.23,30728
1089.53,30397
1090.83,30497
1092.13,30357
1093.43,30199
1094.73,30201
1096.03,30459
1097.32,30211
1098.62,30005
1099.92,30167
1101.21,30217
1102.51,29846
1103.8,30157
1105.1,30133
1106.39,30107
1107.69,29974
1108.98,29987
1110.28,29896
1111.57,29964
1112.86,30048
1114.16,29631
1115.45,29663
1116.74,29534
1118.03,29587
1119.32,29492
1120.61,29627
1121.91,29634
1123.2,29416
1124.49,29393
1125.78,29436
1127.06,29275
1128.35,29254
1129.64,29307
1130.93,29141
1132.22,29321
1133.51,29151
1134.79,28933
1136.08,28928
1137.37,28918
1138.65,28897
1139.94,28749
1141.23,28572
1142.51,28637
1143.8,28981
1145.08,28888
1146.36,28797
1147.65,28735
1148.93,28646
1150.22,28590
1151.5,28347
1152.78,28479
1154.06,28675
1155.34,28424
1156.63,28561
1157.91,28601
1159.19,28511
1160.47,28166
1161.75,28463
1163.03,28401
1164.31,28266
1165.59,28037
1166.87,27978
1168.15,28091
1169.42,27802
1170.7,28139
1171.98,28161
1173.26,28015
1174.53,28121
1175.81,27883
1177.09,28035
1178.36,27961
1179.64,27724
1180.91,27905
1182.19,27881
1183.46,27822
1184.74,27639
1186.01,27501
1187.28,27615
1188.56,27537
1189.83,27638
1191.1,27759
1192.37,27456
1193.65,27467
1194.92,27516
1196.19,27392
1197.46,27343
1198.73,27355
1200,27347
1201.27,27338
1202.54,27193
1203.81,27438
1205.08,27614
1206.35,27366
1207.61,27542
1208.88,27211
1210.15,27165
1211.42,27199
1212.68,27286
1213.95,27340
1215.22,27203
1216.48,27298
1217.75,27231
1219.01,27107
1220.28,27101
1221.54,27082
1222.81,27163
1224.07,27050
1225.33,27063
1226.6,26955
1227.86,26878
1229.12,26860
1230.38,26750
1231.64,27083
1232.91,26786
1234.17,26826
1235.43,26959
1236.69,26923
1237.95,26700
1239.21,26732
1240.47,26774
1241.73,26488
1242.99,26704
1244.25,26604
1245.5,26748
1246.76,26519
1248.02,26316
1249.28,26286
1250.53,26303
1251.79,26302
1253.05,26516
1254.3,26566
1255.56,26082
1256.81,26150
1258.07,26311
1259.32,26336
1260.58,26262
1261.83,26105
1263.08,26079
1264.34,25943
1265.59,25976
1266.84,25726
1268.09,25891
1269.35,25799
1270.6,25977
1271.85,25784
1273.1,25903
1274.35,25605
1275.6,25897
1276.85,25812
1278.1,25557
1279.35,25475
1280.6,25472
1281.85,25406
1283.1,25395
1284.34,25114
1285.59,25112
1286.84,25038
1288.09,25197
1289.33,25096
1290.58,24934
1291.82,24915
1293.07,25057
1294.32,24858
1295.56,24847
1296.81,24854
1298.05,24551
1299.29,24641
1300.54,24500
1301.78,24563
1303.02,24194
1304.27,24220
1305.51,24227
1306.75,24188
1307.99,24123
1309.24,24048
1310.48,23686
1311.72,23729
1312.96,23631
1314.2,23520
1315.44,23630
1316.68,23521
1317.92,23334
1319.16,23704
1320.39,23379
1321.63,23175
1322.87,23245
1324.11,23273
1325.35,23297
1326.58,23133
1327.82,23047
1329.06,22994
1330.29,22730
1331.53,22459
1332.76,22719
1334,22395
1335.23,22520
1336.47,22288
1337.7,22606
1338.93,22333
1340.17,22442
1341.4,22220
1342.63,22079
1343.87,22011
1345.1,22031
1346.33,21816
1347.56,21883
1348.79,21849
1350.02,21853
1351.25,21680
1352.48,21511
1353.71,21649
1354.94,21356
1356.17,21351
1357.4,21344
1358.63,21294
1359.86,21270
1361.09,21072
1362.31,21060
1363.54,21007
1364.77,20909
1365.99,21002
1367.22,20836
1368.45,20679
1369.67,20759
1370.9,20660
1372.12,20556
1373.35,20430
1374.57,20276
1375.8,20473
1377.02,20182
1378.24,20106
1379.47,20076
1380.69,20017
1381.91,19988
1383.13,20000
1384.36,19821
1385.58,19720
1386.8,19787
1388.02,19727
1389.24,19539
1390.46,19595
1391.68,19466
1392.9,19347
1394.12,19372
1395.34,19143
1396.56,18860
1397.78,19004
1398.99,18815
1400.21,18667
1401.43,18647
1402.65,18711
1403.86,18609
1405.08,18556
1406.3,18541
1407.51,18319
1408.73,18468
1409.94,18195
1411.16,18129
1412.37,17935
1413.59,18019
1414.8,17804
1416.01,17840
1417.23,17838
1418.44,17677
1419.65,17472
1420.87,17584
1422.08,17378
1423.29,17407
1424.5,17226
1425.71,17220
1426.92,16993
1428.13,17128
1429.34,17106
1430.55,17034
1431.76,16743
1432.97,16733
1434.18,16594
1435.39,16650
1436.6,16631
1437.81,16478
1439.01,16267
1440.22,16249
1441.43,16143
1442.63,16346
1443.84,15879
1445.05,15978
1446.25,16012
1447.46,15984
1448.66,15767
1449.87,15665
1451.07,15594
1452.28,15484
1453.48,15393
1454.68,15236
1455.89,15278
1457.09,15161
1458.29,15064
1459.5,15073
1460.7,15102
1461.9,14985
1463.1,14875
1464.3,14705
1465.5,14625
1466.7,14355
1467.9,14476
1469.1,14333
1470.3,14210
1471.5,14242
1472.7,14057
1473.9,14044
1475.1,13878
1476.3,13790
1477.49,13856
1478.69,13758
1479.89,13700
1481.09,13514
1482.28,13587
1483.48,13456
1484.67,13365
1485.87,13332
1487.06,13112
1488.26,12945
1489.45,13068
1490.65,12933
1491.84,12946
1493.04,12979
1494.23,12893
1495.42,12721
1496.62,12532
1497.81,12468
1499,12430
1500.19,12313
1501.38,12318
1502.57,12095
1503.77,12106
1504.96,11909
1506.15,12003
1507.34,11832
1508.53,11973
1509.71,11770
1510.9,11785
1512.09,11716
1513.28,11628
1514.47,11456
1515.66,11510
1516.84,11335
1518.03,11246
1519.22,11081
1520.41,11056
1521.59,10999
1522.78,10883
1523.96,10905
1525.15,10926
1526.33,10843
1527.52,10796
1528.7,10647
1529.89,10586
1531.07,10568
1532.25,10393
1533.44,10451
1534.62,10348
1535.8,10325
1536.99,10108
1538.17,10149
1539.35,9977
1540.53,9968
1541.71,9964
1542.89,9843
1544.07,9673
1545.25,9687
1546.43,9620
1547.61,9597
1548.79,9579
1549.97,9422
1551.15,9358
1552.33,9405
1553.51,9271
1554.68,9139
1555.86,9142
1557.04,9146
1558.21,9024
1559.39,8924
1560.57,8940
1561.74,8731
1562.92,8671
1564.09,8598
1565.27,8595
1566.44,8429
1567.62,8519
1568.79,8380
1569.97,8344
1571.14,8351
1572.31,8259
1573.49,8180
1574.66,8158
1575.83,8186
1577,8029
1578.17,7959
1579.35,7836
1580.52,7808
1581.69,7666
1582.86,7682
1584.03,7556
1585.2,7592
1586.37,7640
1587.54,7415
1588.71,7510
1589.88,7371
1591.04,7250
1592.21,7282
1593.38,7248
1594.55,7217
1595.71,7167
1596.88,7079
1598.05,6992
1599.21,7033
1600.38,6954
1601.55,6939
1602.71,6852
1603.88,6830
1605.04,6646
1606.2,6701
1607.37,6618
1608.53,6571
1609.7,6484
1610.86,6378
1612.02,6391
1613.19,6359
1614.35,6323
1615.51,6326
1616.67,6324
1617.83,6137
1618.99,6181
1620.16,6141
1621.32,6172
1622.48,6159
1623.64,6045
1624.8,6004
1625.96,6010
1627.11,5998
1628.27,6051
1629.43,5903
1630.59,5820
1631.75,5761
1632.91,5817
1634.06,5732
1635.22,5694
1636.38,5638
1637.53,5642
1638.69,5511
1639.84,5471
1641,5451
1642.16,5290
1643.31,5243
1644.47,5286
1645.62,5203
1646.77,5141
1647.93,5124
1649.08,5130
1650.23,5032
1651.39,4958
1652.54,4989
1653.69,4899
1654.84,4908
1656,4836
1657.15,4854
1658.3,4734
1659.45,4693
1660.6,4738
1661.75,4734
1662.9,4741
1664.05,4626
1665.2,4643
1666.35,4556
1667.5,4526
1668.64,4467
1669.79,4500
1670.94,4524
1672.09,4354
1673.24,4467
1674.38,4372
1675.53,4326
1676.68,4337
1677.82,4372
1678.97,4235
1680.11,4327
1681.26,4228
1682.4,4142
1683.55,4119
1684.69,4094
1685.84,4081
1686.98,4023
1688.12,4064
1689.27,3995
1690.41,3993
1691.55,3947
1692.69,3905
1693.84,3840
1694.98,3865
1696.12,3852
1697.26,3839
1698.4,3742
1699.54,3738
1700.68,3764
1701.82,3675
1702.96,3679
1704.1,3726
1705.24,3695
1706.38,3717
1707.52,3687
1708.66,3639
1709.79,3601
1710.93,3590
1712.07,3568
1713.21,3656
1714.34,3610
1715.48,3596
1716.62,3591
1717.75,3532
1718.89,3452
1720.02,3422
1721.16,3490
1722.29,3429
1723.43,3347
1724.56,3335
1725.69,3327
1726.83,3335
1727.96,3298
1729.09,3302
1730.23,3250
1731.36,3312
1732.49,3190
1733.62,3251
1734.75,3209
1735.89,3202
1737.02,3173
1738.15,3232
1739.28,3261
1740.41,3143
1741.54,3128
1742.67,3119
1743.8,3043
1744.93,3100
1746.05,3060
1747.18,3069
1748.31,3081
1749.44,3026
1750.57,3038
1751.69,3057
1752.82,2954
1753.95,2910
1755.07,3004
1756.2,2956
1757.32,2986
1758.45,3004
1759.58,2970
1760.7,2953
1761.83,3015
1762.95,2918
1764.07,2919
1765.2,2926
1766.32,2882
1767.44,2872
1768.57,2856
1769.69,2911
1770.81,2804
1771.93,2862
1773.06,2848
1774.18,2743
1775.3,2844
1776.42,2843
1777.54,2758
1778.66,2824
1779.78,2749
1780.9,2728
1782.02,2740
1783.14,2762
1784.26,2718
1785.38,2715
1786.49,2681
1787.61,2668
1788.73,2736
1789.85,2755
1790.97,2726
1792.08,2731
1793.2,2670
1794.32,2674
1795.43,2676
1796.55,2601
1797.66,2624
1798.78,2671
1799.89,2606
1801.01,2635
1802.12,2567
1803.24,2602
1804.35,2632
1805.46,2571
1806.58,2623
1807.69,2630
1808.8,2635
1809.91,2639
1811.03,2572
1812.14,2586
1813.25,2554
1814.36,2596
1815.47,2544
1816.58,2575
1817.69,2518
1818.8,2595
1819.91,2539
1821.02,2565
1822.13,2480
1823.24,2544
1824.35,2529
1825.46,2510
1826.57,2536
1827.67,2518
1828.78,2530
1829.89,2583
1831,2509
1832.1,2515
1833.21,2506
1834.32,2479
1835.42,2489
1836.53,2527
1837.63,2451
1838.74,2498
1839.84,2505
1840.95,2550
1842.05,2510
1843.16,2472
1844.26,2445
1845.36,2469
1846.47,2442
1847.57,2526
1848.67,2498
1849.77,2451
1850.88,2426
1851.98,2446
1853.08,2490
1854.18,2458
1855.28,2470
1856.38,2454
1857.48,2471
1858.58,2487
1859.68,2442
1860.78,2454
1861.88,2448
1862.98,2430
1864.08,2502
1865.18,2492
1866.27,2487
1867.37,2479
1868.47,2439
1869.57,2450
1870.66,2430
1871.76,2459
1872.86,2430
1873.95,2363
1875.05,2412
1876.14,2462
1877.24,2469
1878.34,2464
1879.43,2381
1880.52,2497
1881.62,2401
1882.71,2471
1883.81,2452
1884.9,2437
1885.99,2454
1887.09,2414
1888.18,2433
1889.27,2438
1890.36,2432
1891.45,2424
1892.55,2420
1893.64,2434
1894.73,2439
1895.82,2408
1896.91,2439
1898,2399
1899.09,2406
1900.18,2384
1901.27,2387
1902.36,2399
1903.44,2412
1904.53,2417
1905.62,2414
1906.71,2440
1907.8,2434
1908.88,2428
1909.97,2426
1911.06,2438
1912.14,2422
1913.23,2421
1914.32,2411
1915.4,2403
1916.49,2388
1917.57,2418
1918.66,2416
1919.74,2401
1920.83,2365
1921.91,2454
1922.99,2410
1924.08,2427
1925.16,2430
1926.24,2458
1927.33,2448
1928.41,2430
1929.49,2422
1930.57,2404
1931.65,2438
1932.74,2407
1933.82,2404
1934.9,2439
1935.98,2413
1937.06,2439
1938.14,2422
1939.22,2418
1940.3,2441
1941.38,2437
1942.46,2458
1943.53,2423
1944.61,2475
1945.69,2425
1946.77,2406
1947.85,2403
1948.92,2460
1950,2368
1951.08,2455
1952.15,2434
1953.23,2464
1954.3,2464
1955.38,2470
1956.46,2440
1957.53,2454
1958.61,2410
1959.68,2418
1960.75,2478
1961.83,2449
1962.9,2415
1963.98,2509
1965.05,2471
1966.12,2397
1967.19,2531
1968.27,2492
1969.34,2448
1970.41,2477
1971.48,2477
1972.55,2498
1973.62,2483
1974.69,2440
1975.76,2458
1976.84,2432
1977.91,2494
1978.97,2437
1980.04,2479
1981.11,2397