File: example raman data/GM1_Fiber002.V5.10x_Black_C85umxD12.5_30sec.csv
269.58,25822
271.101,25886
272.622,25837
274.142,25750
275.662,25804
277.181,25846
278.7,25580
280.219,25746
281.737,25623
283.254,25671
284.772,25596
286.288,25430
287.805,25511
289.321,25473
290.837,25573
292.352,25378
293.866,25661
295.381,25416
296.895,25567
298.408,25644
299.921,25380
301.434,25361
302.946,25372
304.458,25144
305.969,25319
307.48,25212
308.991,25281
310.501,25419
312.011,25329
313.52,25297
315.029,25561
316.538,25465
318.046,25485
319.553,25699
321.061,25667
322.567,25504
324.074,25410
325.58,25259
327.085,25152
328.591,25293
330.095,25302
331.6,25074
333.104,25050
334.607,25124
336.11,24760
337.613,25055
339.115,24775
340.617,24825
342.118,24992
343.619,24957
345.12,24972
346.62,24920
348.12,24813
349.619,24677
351.118,24688
352.617,24716
354.115,24772
355.612,24518
357.11,24585
358.607,24600
360.103,24740
361.599,24488
363.095,24585
364.59,24602
366.085,24370
367.579,24339
369.073,24512
370.567,24324
372.06,24357
373.553,24401
375.045,24136
376.537,24215
378.028,24291
379.52,24217
381.01,24008
382.5,23980
383.99,24288
385.48,24115
386.969,24196
388.458,24014
389.946,24182
391.434,23920
392.921,24131
394.408,23971
395.895,23855
397.381,23984
398.867,24004
400.352,23972
401.837,23879
403.321,23889
404.806,23911
406.289,23962
407.773,23972
409.256,23932
410.738,23962
412.22,23678
413.702,23785
415.183,23656
416.664,23674
418.145,23851
419.625,23506
421.104,23259
422.584,23691
424.062,23526
425.541,23352
427.019,23652
428.496,23606
429.974,23357
431.451,23352
432.927,23337
434.403,23384
435.879,23202
437.354,23285
438.829,23338
440.303,23400
441.777,23349
443.251,23244
444.724,23137
446.196,23234
447.669,23188
449.141,23209
450.612,23075
452.083,23092
453.554,23125
455.025,23231
456.495,23130
457.964,23057
459.433,22877
460.902,23110
462.37,23014
463.838,22923
465.306,22752
466.773,22908
468.24,23029
469.706,22877
471.172,23024
472.637,22686
474.102,22926
475.567,22982
477.031,22920
478.495,22969
479.959,22946
481.422,22819
482.885,22839
484.347,22801
485.809,22763
487.27,22889
488.732,22788
490.192,22547
491.653,22816
493.113,22651
494.572,22640
496.031,22575
497.49,22644
498.948,22542
500.406,22736
501.864,22591
503.321,22505
504.777,22545
506.234,22559
507.69,22545
509.145,22402
510.6,22498
512.055,22375
513.509,22391
514.963,22306
516.417,22328
517.87,22364
519.323,22271
520.775,22441
522.227,22155
523.679,21959
525.13,22148
526.58,22117
528.031,22055
529.481,22092
530.93,22108
532.379,22099
533.828,22076
535.277,22114
536.725,21933
538.172,21880
539.619,21851
541.066,21875
542.513,21880
543.959,21936
545.404,21889
546.849,21770
548.294,21847
549.739,21697
551.183,21847
552.626,21809
554.07,21719
555.512,21699
556.955,21794
558.397,21795
559.839,21700
561.28,21650
562.721,21618
564.161,21628
565.601,21656
567.041,21479
568.48,21535
569.919,21578
571.358,21582
572.796,21578
574.234,21343
575.671,21436
577.108,21496
578.545,21292
579.981,21273
581.417,21366
582.852,21297
584.287,21116
585.722,21334
587.156,21284
588.59,21250
590.023,21350
591.456,21258
592.889,21312
594.321,20990
595.753,21017
597.185,21183
598.616,21191
600.046,21186
601.477,21141
602.907,20851
604.336,21190
605.765,20870
607.194,20958
608.623,20852
610.051,20762
611.478,20953
612.905,21017
614.332,20977
615.759,20751
617.185,20680
618.61,20793
620.036,20624
621.461,20644
622.885,20647
624.309,20620
625.733,20592
627.156,20647
628.579,20706
630.002,20728
631.424,20712
632.846,20716
634.267,20711
635.688,20729
637.109,20620
638.529,20642
639.949,20724
641.369,20489
642.788,20643
644.206,20318
645.625,20413
647.043,20309
648.46,20233
649.877,20267
651.294,20407
652.711,20166
654.127,20069
655.542,20379
656.958,20120
658.372,20035
659.787,20056
661.201,20125
662.615,20312
664.028,19976
665.441,20155
666.854,20219
668.266,20145
669.678,20230
671.089,20017
672.5,20114
673.911,20090
675.321,20095
676.731,19928
678.14,19859
679.55,20028
680.958,20046
682.367,19888
683.775,19812
685.182,19754
686.589,19658
687.996,19475
689.403,19459
690.809,19639
692.215,19538
693.62,19469
695.025,19558
696.429,19486
697.834,19580
699.237,19391
700.641,19393
702.044,19425
703.446,19265
704.849,19191
706.251,19327
707.652,19124
709.053,19217
710.454,19063
711.854,19258
713.254,19280
714.654,19161
716.053,19034
717.452,18930
718.851,19000
720.249,18987
721.647,18839
723.044,18780
724.441,18927
725.837,18953
727.234,18955
728.63,18775
730.025,18788
731.42,18788
732.815,18832
734.209,18700
735.603,18878
736.997,18687
738.39,18610
739.783,18751
741.175,18622
742.567,18675
743.959,18413
745.35,18611
746.741,18541
748.132,18703
749.522,18499
750.912,18499
752.301,18574
753.69,18381
755.079,18451
756.468,18395
757.855,18351
759.243,18388
760.63,18386
762.017,18298
763.404,18448
764.79,18395
766.175,18306
767.561,18409
768.946,18144
770.33,18180
771.714,18258
773.098,18239
774.482,18154
775.865,18102
777.248,17975
778.63,18179
780.012,18166
781.394,17978
782.775,18183
784.156,18069
785.536,17982
786.916,17956
788.296,17847
789.675,17939
791.054,17900
792.433,17850
793.811,17708
795.189,17808
796.567,17842
797.944,17847
799.321,17794
800.697,17651
802.073,17792
803.449,17856
804.824,17656
806.199,17651
807.574,17475
808.948,17558
810.322,17514
811.695,17471
813.068,17287
814.441,17414
815.813,17536
817.185,17300
818.557,17289
819.928,17365
821.299,17218
822.67,17144
824.04,17362
825.409,17287
826.779,17329
828.148,17217
829.517,17252
830.885,17235
832.253,17222
833.62,17268
834.988,17139
836.354,17248
837.721,17240
839.087,17160
840.453,17186
841.818,17219
843.183,17062
844.548,17073
845.912,17262
847.276,17024
848.639,17139
850.002,17113
851.365,17033
852.728,17084
854.09,17174
855.451,17064
856.813,17172
858.174,16901
859.534,17040
860.895,16918
862.254,17077
863.614,16945
864.973,16945
866.332,16968
867.69,16992
869.048,16892
870.406,16969
871.763,17008
873.12,16853
874.477,16898
875.833,16999
877.189,16944
878.545,17012
879.9,16824
881.255,16937
882.609,16836
883.963,16906
885.317,16900
886.67,16863
888.023,16898
889.376,16820
890.728,16886
892.08,16989
893.431,16860
894.782,16798
896.133,16688
897.484,16643
898.834,16727
900.183,16825
901.533,16778
902.882,16678
904.23,16638
905.579,16584
906.927,16943
908.274,16572
909.621,16503
910.968,16582
912.315,16586
913.661,16518
915.006,16678
916.352,16642
917.697,16596
919.042,16505
920.386,16577
921.73,16566
923.073,16695
924.417,16467
925.76,16498
927.102,16412
928.444,16364
929.786,16401
931.127,16436
932.469,16358
933.809,16452
935.15,16347
936.49,16335
937.829,16167
939.169,16344
940.508,16277
941.846,16257
943.184,16158
944.522,16208
945.86,16240
947.197,16267
948.534,16091
949.87,16166
951.206,16127
952.542,16185
953.877,16138
955.212,16083
956.547,16227
957.881,16071
959.215,15949
960.549,16147
961.882,16034
963.215,16279
964.547,15976
965.879,16220
967.211,16097
968.543,16060
969.874,15961
971.205,16155
972.535,16095
973.865,15958
975.195,16033
976.524,15869
977.853,15949
979.182,16076
980.51,15981
981.838,16003
983.165,16023
984.493,15949
985.819,16000
987.146,15923
988.472,15891
989.798,15861
991.123,15886
992.448,15812
993.773,15781
995.097,15811
996.421,15959
997.745,15886
999.068,15851
1000.39,15950
1001.71,15833
1003.04,15933
1004.36,15806
1005.68,15996
1007,15796
1008.32,15860
1009.64,15770
1010.96,15919
1012.28,15859
1013.6,15884
1014.92,15932
1016.24,15718
1017.56,16003
1018.88,15923
1020.19,16010
1021.51,15994
1022.83,16122
1024.14,16165
1025.46,16191
1026.78,16288
1028.09,16020
1029.41,16135
1030.72,16194
1032.04,15803
1033.35,15808
1034.67,15818
1035.98,15897
1037.29,15836
1038.6,15678
1039.92,15668
1041.23,15544
1042.54,15703
1043.85,15604
1045.16,15438
1046.47,15655
1047.78,15514
1049.09,15687
1050.4,15673
1051.71,15547
1053.02,15599
1054.33,15620
1055.64,15546
1056.95,15535
1058.26,15527
1059.56,15555
1060.87,15518
1062.18,15789
1063.48,15665
1064.79,15699
1066.09,15623
1067.4,15494
1068.7,15684
1070.01,15470
1071.31,15512
1072.62,15215
1073.92,15460
1075.22,15621
1076.53,15376
1077.83,15306
1079.13,15300
1080.43,15315
1081.73,15387
1083.03,15325
1084.33,15364
1085.63,15408
1086.93,15450
1088.23,15341
1089.53,15351
1090.83,15332
1092.13,15239
1093.43,15345
1094.73,15291
1096.03,15051
1097.32,15133
1098.62,14935
1099.92,15012
1101.21,15010
1102.51,14960
1103.8,15106
1105.1,15109
1106.39,15163
1107.69,15172
1108.98,15021
1110.28,14847
1111.57,14889
1112.86,14931
1114.16,14893
1115.45,15055
1116.74,14911
1118.03,14944
1119.32,14901
1120.61,14974
1121.91,14811
1123.2,14825
1124.49,14870
1125.78,14692
1127.06,14758
1128.35,14870
1129.64,14873
1130.93,14893
1132.22,14784
1133.51,14807
1134.79,14670
1136.08,14755
1137.37,14826
1138.65,14907
1139.94,14659
1141.23,14854
1142.51,14709
1143.8,14518
1145.08,14781
1146.36,14679
1147.65,14686
1148.93,14803
1150.22,14566
1151.5,14658
1152.78,14616
1154.06,14539
1155.34,14583
1156.63,14711
1157.91,14641
1159.19,14543
1160.47,14596
1161.75,14635
1163.03,14638
1164.31,14544
1165.59,14654
1166.87,14508
1168.15,14686
1169.42,14514
1170.7,14346
1171.98,14557
1173.26,14564
1174.53,14374
1175.81,14320
1177.09,14432
1178.36,14590
1179.64,14564
1180.91,14362
1182.19,14398
1183.46,14505
1184.74,14613
1186.01,14281
1187.28,14408
1188.56,14381
1189.83,14511
1191.1,14430
1192.37,14434
1193.65,14294
1194.92,14283
1196.19,14332
1197.46,14454
1198.73,14455
1200,14368
1201.27,14304
1202.54,14519
1203.81,14484
1205.08,14407
1206.35,14487
1207.61,14316
1208.88,14355
1210.15,14360
1211.42,14292
1212.68,14334
1213.95,14373
1215.22,14369
1216.48,14525
1217.75,14332
1219.01,14178
1220.28,14370
1221.54,14392
1222.81,14538
1224.07,14502
1225.33,14277
1226.6,14470
1227.86,14286
1229.12,14401
1230.38,14491
1231.64,14361
1232.91,14192
1234.17,14426
1235.43,14482
1236.69,14326
1237.95,14486
1239.21,14458
1240.47,14243
1241.73,14382
1242.99,14313
1244.25,14412
1245.5,14452
1246.76,14315
1248.02,14259
1249.28,14195
1250.53,14200
1251.79,14218
1253.05,14500
1254.3,14342
1255.56,14456
1256.81,14453
1258.07,14298
1259.32,14179
1260.58,14462
1261.83,14291
1263.08,14289
1264.34,14364
1265.59,14286
1266.84,14316
1268.09,14347
1269.35,14330
1270.6,14347
1271.85,14361
1273.1,14340
1274.35,14355
1275.6,14262
1276.85,13978
1278.1,14231
1279.35,14103
1280.6,14148
1281.85,14135
1283.1,14238
1284.34,14164
1285.59,14327
1286.84,14222
1288.09,14211
1289.33,14068
1290.58,14150
1291.82,14124
1293.07,14059
1294.32,14118
1295.56,14161
1296.81,14129
1298.05,14128
1299.29,14075
1300.54,14150
1301.78,14093
1303.02,13812
1304.27,14017
1305.51,13917
1306.75,13934
1307.99,14118
1309.24,13946
1310.48,14027
1311.72,14013
1312.96,13871
1314.2,13946
1315.44,14107
1316.68,13976
1317.92,13966
1319.16,13908
1320.39,13905
1321.63,13800
1322.87,13982
1324.11,13891
1325.35,13743
1326.58,14006
1327.82,13808
1329.06,13809
1330.29,13798
1331.53,13815
1332.76,13786
1334,13852
1335.23,13780
1336.47,13747
1337.7,13849
1338.93,13769
1340.17,13702
1341.4,13750
1342.63,13710
1343.87,13791
1345.1,13732
1346.33,13794
1347.56,13790
1348.79,13726
1350.02,13759
1351.25,13576
1352.48,13678
1353.71,13718
1354.94,13778
1356.17,13586
1357.4,13690
1358.63,13563
1359.86,13686
1361.09,13702
1362.31,13634
1363.54,13695
1364.77,13659
1365.99,13663
1367.22,13690
1368.45,13623
1369.67,13519
1370.9,13649
1372.12,13552
1373.35,13492
1374.57,13458
1375.8,13448
1377.02,13342
1378.24,13314
1379.47,13628
1380.69,13478
1381.91,13423
1383.13,13386
1384.36,13258
1385.58,13395
1386.8,13347
1388.02,13215
1389.24,13476
1390.46,13710
1391.68,13543
1392.9,13492
1394.12,13282
1395.34,13260
1396.56,13281
1397.78,13339
1398.99,13286
1400.21,13136
1401.43,13258
1402.65,13147
1403.86,13219
1405.08,13151
1406.3,13226
1407.51,13127
1408.73,13206
1409.94,13114
1411.16,13169
1412.37,13024
1413.59,12911
1414.8,13066
1416.01,13104
1417.23,13159
1418.44,12983
1419.65,12991
1420.87,12945
1422.08,12979
1423.29,12922
1424.5,12957
1425.71,12943
1426.92,12799
1428.13,13108
1429.34,13021
1430.55,12927
1431.76,12920
1432.97,12919
1434.18,12800
1435.39,12755
1436.6,12925
1437.81,12816
1439.01,12822
1440.22,12860
1441.43,12626
1442.63,12762
1443.84,12686
1445.05,12758
1446.25,12678
1447.46,12701
1448.66,12676
1449.87,12669
1451.07,12605
1452.28,12555
1453.48,12611
1454.68,12449
1455.89,12496
1457.09,12585
1458.29,12648
1459.5,12535
1460.7,12418
1461.9,12449
1463.1,12485
1464.3,12540
1465.5,12447
1466.7,12438
1467.9,12508
1469.1,12420
1470.3,12413
1471.5,12415
1472.7,12291
1473.9,12448
1475.1,12268
1476.3,12372
1477.49,12267
1478.69,12498
1479.89,12256
1481.09,12408
1482.28,12320
1483.48,12212
1484.67,12253
1485.87,12207
1487.06,12228
1488.26,12188
1489.45,12071
1490.65,12254
1491.84,12221
1493.04,12244
1494.23,12245
1495.42,12155
1496.62,12061
1497.81,12205
1499,12067
1500.19,12050
1501.38,12020
1502.57,12112
1503.77,12091
1504.96,12061
1506.15,12019
1507.34,12035
1508.53,11900
1509.71,12086
1510.9,11921
1512.09,12029
1513.28,12019
1514.47,12080
1515.66,11909
1516.84,11892
1518.03,11961
1519.22,11817
1520.41,11872
1521.59,11810
1522.78,11902
1523.96,11740
1525.15,11842
1526.33,11892
1527.52,11936
1528.7,11726
1529.89,11827
1531.07,11803
1532.25,11848
1533.44,11790
1534.62,11743
1535.8,11686
1536.99,11698
1538.17,11540
1539.35,11508
1540.53,11603
1541.71,11587
1542.89,11579
1544.07,11700
1545.25,11732
1546.43,11502
1547.61,11702
1548.79,11734
1549.97,11496
1551.15,11679
1552.33,11657
1553.51,11628
1554.68,11600
1555.86,11577
1557.04,11618
1558.21,11576
1559.39,11492
1560.57,11436
1561.74,11349
1562.92,11416
1564.09,11455
1565.27,11410
1566.44,11271
1567.62,11341
1568.79,11189
1569.97,11447
1571.14,11435
1572.31,11306
1573.49,11508
1574.66,11416
1575.83,11306
1577,11383
1578.17,11284
1579.35,11238
1580.52,11163
1581.69,11249
1582.86,11255
1584.03,11199
1585.2,11077
1586.37,11150
1587.54,11156
1588.71,11177
1589.88,11086
1591.04,11169
1592.21,11058
1593.38,11092
1594.55,11119
1595.71,11004
1596.88,10979
1598.05,10991
1599.21,11083
1600.38,11092
1601.55,11002
1602.71,11094
1603.88,11087
1605.04,11051
1606.2,11031
1607.37,11007
1608.53,10979
1609.7,10915
1610.86,10769
1612.02,10840
1613.19,10862
1614.35,10777
1615.51,10799
1616.67,10864
1617.83,10924
1618.99,10987
1620.16,11122
1621.32,10983
1622.48,10976
1623.64,11000
1624.8,11094
1625.96,11092
1627.11,11123
1628.27,11014
1629.43,11074
1630.59,10967
1631.75,10978
1632.91,11021
1634.06,11031
1635.22,11069
1636.38,10880
1637.53,10868
1638.69,10758
1639.84,10756
1641,10634
1642.16,10781
1643.31,10621
1644.47,10639
1645.62,10569
1646.77,10426
1647.93,10487
1649.08,10417
1650.23,10539
1651.39,10403
1652.54,10464
1653.69,10376
1654.84,10382
1656,10586
1657.15,10446
1658.3,10386
1659.45,10348
1660.6,10336
1661.75,10238
1662.9,10309
1664.05,10247
1665.2,10389
1666.35,10333
1667.5,10397
1668.64,10331
1669.79,10260
1670.94,10366
1672.09,10306
1673.24,10146
1674.38,10180
1675.53,10146
1676.68,10234
1677.82,10257
1678.97,10239
1680.11,10092
1681.26,10097
1682.4,10164
1683.55,10135
1684.69,10199
1685.84,10012
1686.98,10189
1688.12,10069
1689.27,10012
1690.41,10038
1691.55,9954
1692.69,9967
1693.84,9948
1694.98,9934
1696.12,10082
1697.26,9880
1698.4,9767
1699.54,9879
1700.68,9857
1701.82,9866
1702.96,9867
1704.1,9876
1705.24,9817
1706.38,9851
1707.52,9800
1708.66,9857
1709.79,9900
1710.93,9844
1712.07,9776
1713.21,9800
1714.34,9980
1715.48,9916
1716.62,9803
1717.75,9821
1718.89,9871
1720.02,9726
1721.16,9687
1722.29,9651
1723.43,9502
1724.56,9531
1725.69,9603
1726.83,9503
1727.96,9565
1729.09,9539
1730.23,9617
1731.36,9548
1732.49,9535
1733.62,9462
1734.75,9480
1735.89,9569
1737.02,9553
1738.15,9631
1739.28,9428
1740.41,9512
1741.54,9484
1742.67,9427
1743.8,9488
1744.93,9484
1746.05,9451
1747.18,9389
1748.31,9267
1749.44,9175
1750.57,9243
1751.69,9316
1752.82,9385
1753.95,9253
1755.07,9232
1756.2,9306
1757.32,9301
1758.45,9254
1759.58,9347
1760.7,9312
1761.83,9269
1762.95,9347
1764.07,9238
1765.2,9262
1766.32,9229
1767.44,9230
1768.57,9154
1769.69,9067
1770.81,9133
1771.93,9063
1773.06,9142
1774.18,9058
1775.3,9094
1776.42,8995
1777.54,8987
1778.66,8958
1779.78,8972
1780.9,8888
1782.02,9035
1783.14,9066
1784.26,8908
1785.38,9052
1786.49,8855
1787.61,8875
1788.73,8998
1789.85,8913
1790.97,8877
1792.08,8857
1793.2,8903
1794.32,8886
1795.43,8797
1796.55,8770
1797.66,8721
1798.78,8661
1799.89,8768
1801.01,8666
1802.12,8687
1803.24,8685
1804.35,8636
1805.46,8552
1806.58,8662
1807.69,8779
1808.8,8676
1809.91,8732
1811.03,8764
1812.14,8737
1813.25,8706
1814.36,8739
1815.47,8702
1816.58,8602
1817.69,8672
1818.8,8669
1819.91,8519
1821.02,8646
1822.13,8548
1823.24,8499
1824.35,8405
1825.46,8551
1826.57,8603
1827.67,8484
1828.78,8403
1829.89,8383
1831,8433
1832.1,8426
1833.21,8394
1834.32,8301
1835.42,8323
1836.53,8252
1837.63,8412
1838.74,8143
1839.84,8301
1840.95,8232
1842.05,8348
1843.16,8317
1844.26,8282
1845.36,8189
1846.47,8258
1847.57,8276
1848.67,8174
1849.77,8251
1850.88,8278
1851.98,8227
1853.08,8301
1854.18,8212
1855.28,8204
1856.38,8134
1857.48,8096
1858.58,8098
1859.68,8125
1860.78,8116
1861.88,8149
1862.98,8057
1864.08,8094
1865.18,8074
1866.27,8054
1867.37,7969
1868.47,7864
1869.57,8067
1870.66,7888
1871.76,7992
1872.86,7920
1873.95,8054
1875.05,7918
1876.14,7958
1877.24,7882
1878.34,7990
1879.43,7986
1880.52,7982
1881.62,7945
1882.71,7907
1883.81,7855
1884.9,7992
1885.99,7883
1887.09,7789
1888.18,7852
1889.27,7862
1890.36,7859
1891.45,7746
1892.55,7739
1893.64,7743
1894.73,7720
1895.82,7843
1896.91,7683
1898,7680
1899.09,7671
1900.18,7594
1901.27,7663
1902.36,7687
1903.44,7577
1904.53,7708
1905.62,7659
1906.71,7676
1907.8,7597
1908.88,7614
1909.97,7532
1911.06,7506
1912.14,7522
1913.23,7495
1914.32,7556
1915.4,7452
1916.49,7532
1917.57,7474
1918.66,7440
1919.74,7380
1920.83,7476
1921.91,7459
1922.99,7425
1924.08,7311
1925.16,7442
1926.24,7398
1927.33,7472
1928.41,7349
1929.49,7371
1930.57,7340
1931.65,7299
1932.74,7300
1933.82,7382
1934.9,7257
1935.98,7332
1937.06,7302
1938.14,7150
1939.22,7142
1940.3,7219
1941.38,7262
1942.46,7206
1943.53,7198
1944.61,7253
1945.69,7229
1946.77,7191
1947.85,7209
1948.92,7152
1950,7009
1951.08,7113
1952.15,7187
1953.23,7083
1954.3,7073
1955.38,7103
1956.46,7021
1957.53,7158
1958.61,7082
1959.68,7092
1960.75,7021
1961.83,7080
1962.9,6943
1963.98,7100
1965.05,6954
1966.12,6903
1967.19,6890
1968.27,7003
1969.34,6990
1970.41,6894
1971.48,6943
1972.55,6947
1973.62,6852
1974.69,6778
1975.76,6754
1976.84,6823
1977.91,6838
1978.97,6718
1980.04,6750
1981.11,6774