File: example raman data/GM1_Fiber005.V3_Blue_140umx1.34um_40x_30sec.csv
340.52,4991
342.025,5013
343.528,4981
345.032,5056
346.535,5002
348.038,5071
349.54,4976
351.042,5063
352.543,5021
354.044,4948
355.545,5028
357.045,5088
358.545,5012
360.044,4939
361.543,4914
363.041,4858
364.539,4840
366.037,4823
367.534,4756
369.031,4809
370.528,4766
372.024,4827
373.519,4803
375.015,4800
376.509,4776
378.004,4815
379.498,4840
380.991,4878
382.485,4827
383.977,4801
385.47,4979
386.962,4994
388.453,5138
389.944,5286
391.435,5285
392.925,5193
394.415,4966
395.905,4767
397.394,4780
398.882,4798
400.371,4787
401.858,4655
403.346,4714
404.833,4723
406.319,4648
407.806,4662
409.291,4735
410.777,4659
412.262,4647
413.746,4662
415.231,4625
416.714,4599
418.198,4647
419.681,4511
421.163,4610
422.645,4596
424.127,4522
425.608,4630
427.089,4536
428.57,4491
430.05,4607
431.53,4543
433.009,4552
434.488,4574
435.966,4480
437.444,4515
438.922,4495
440.399,4508
441.876,4433
443.353,4394
444.829,4460
446.304,4464
447.78,4471
449.254,4486
450.729,4446
452.203,4499
453.677,4467
455.15,4493
456.623,4483
458.095,4385
459.567,4365
461.039,4420
462.51,4424
463.981,4318
465.451,4458
466.921,4450
468.391,4430
469.86,4387
471.329,4382
472.797,4415
474.265,4371
475.733,4411
477.2,4294
478.667,4387
480.133,4415
481.599,4408
483.065,4310
484.53,4288
485.995,4354
487.459,4404
488.923,4392
490.387,4346
491.85,4291
493.313,4260
494.775,4286
496.237,4271
497.699,4340
499.16,4339
500.621,4271
502.081,4216
503.541,4267
505.001,4296
506.46,4350
507.919,4317
509.377,4339
510.835,4291
512.293,4204
513.75,4259
515.207,4300
516.663,4304
518.119,4310
519.575,4082
521.03,4188
522.485,4132
523.939,4178
525.393,4227
526.847,4201
528.3,4235
529.753,4150
531.205,4119
532.657,4187
534.109,4155
535.56,4180
537.011,4212
538.462,4243
539.912,4086
541.361,4103
542.811,4116
544.26,4199
545.708,4116
547.156,4204
548.604,4150
550.051,4177
551.498,4161
552.945,4181
554.391,4050
555.837,4119
557.282,4147
558.727,4157
560.171,4176
561.616,4167
563.059,4119
564.503,4148
565.946,4126
567.388,4096
568.831,4101
570.272,4087
571.714,4086
573.155,4057
574.595,4090
576.036,4128
577.476,4135
578.915,4120
580.354,4143
581.793,4120
583.231,4103
584.669,4075
586.106,4031
587.544,4026
588.98,4100
590.417,4092
591.853,4063
593.288,4109
594.723,4047
596.158,4025
597.592,4104
599.026,4083
600.46,4114
601.893,4191
603.326,4087
604.758,4140
606.19,4063
607.622,4033
609.053,4067
610.484,4038
611.915,4058
613.345,4122
614.775,4159
616.204,4191
617.633,4187
619.061,4219
620.49,4264
621.917,4290
623.345,4348
624.772,4338
626.198,4224
627.625,4238
629.05,4090
630.476,4126
631.901,4062
633.326,4063
634.75,3962
636.174,3858
637.597,3863
639.021,3881
640.443,3923
641.866,3959
643.288,3918
644.709,3951
646.13,3855
647.551,3886
648.972,3890
650.392,3888
651.811,3832
653.231,3871
654.65,3907
656.068,3872
657.486,3843
658.904,3852
660.321,3955
661.738,3893
663.155,3849
664.571,3966
665.987,3808
667.403,3867
668.818,3808
670.232,3907
671.647,3918
673.061,3854
674.474,4020
675.887,3966
677.3,4028
678.712,3942
680.124,3897
681.536,3863
682.947,3783
684.358,3856
685.769,3838
687.179,3823
688.588,3910
689.998,3819
691.407,3771
692.815,3759
694.224,3795
695.631,3855
697.039,3827
698.446,3857
699.853,3882
701.259,3859
702.665,3871
704.07,3806
705.475,3792
706.88,3774
708.285,3823
709.689,3858
711.092,3798
712.496,3862
713.898,3831
715.301,3769
716.703,3815
718.105,3800
719.506,3741
720.907,3755
722.308,3745
723.708,3761
725.108,3747
726.507,3787
727.907,3754
729.305,3709
730.704,3697
732.102,3774
733.499,3740
734.896,3754
736.293,3640
737.69,3672
739.086,3656
740.482,3689
741.877,3740
743.272,3746
744.666,3672
746.061,3626
747.454,3701
748.848,3744
750.241,3703
751.634,3755
753.026,3786
754.418,3655
755.81,3650
757.201,3671
758.592,3647
759.982,3607
761.372,3612
762.762,3600
764.151,3590
765.54,3607
766.929,3612
768.317,3553
769.705,3586
771.092,3521
772.479,3575
773.866,3514
775.253,3483
776.639,3551
778.024,3518
779.409,3532
780.794,3512
782.179,3492
783.563,3475
784.947,3595
786.33,3503
787.713,3521
789.096,3483
790.478,3451
791.86,3463
793.241,3493
794.622,3459
796.003,3436
797.384,3434
798.764,3447
800.143,3463
801.523,3447
802.902,3451
804.28,3446
805.658,3346
807.036,3428
808.414,3373
809.791,3393
811.167,3400
812.544,3437
813.92,3379
815.295,3383
816.67,3409
818.045,3469
819.42,3404
820.794,3379
822.168,3449
823.541,3425
824.914,3461
826.287,3487
827.659,3424
829.031,3473
830.402,3467
831.774,3474
833.144,3390
834.515,3419
835.885,3456
837.255,3472
838.624,3470
839.993,3400
841.362,3383
842.73,3430
844.098,3391
845.465,3370
846.832,3362
848.199,3394
849.565,3370
850.931,3368
852.297,3332
853.662,3299
855.027,3364
856.392,3298
857.756,3256
859.12,3334
860.484,3303
861.847,3304
863.209,3228
864.572,3315
865.934,3283
867.295,3259
868.657,3250
870.018,3270
871.378,3235
872.738,3218
874.098,3242
875.458,3289
876.817,3217
878.176,3247
879.534,3225
880.892,3279
882.25,3232
883.607,3245
884.964,3293
886.32,3301
887.677,3254
889.033,3168
890.388,3153
891.743,3218
893.098,3190
894.452,3178
895.806,3197
897.16,3206
898.513,3196
899.866,3139
901.219,3225
902.571,3170
903.923,3122
905.274,3209
906.626,3252
907.976,3185
909.327,3180
910.677,3145
912.027,3180
913.376,3133
914.725,3153
916.074,3175
917.422,3193
918.77,3193
920.117,3127
921.464,3218
922.811,3187
924.158,3120
925.504,3084
926.85,3211
928.195,3117
929.54,3131
930.885,3183
932.229,3120
933.573,3183
934.916,3150
936.26,3199
937.603,3186
938.945,3145
940.287,3183
941.629,3124
942.971,3122
944.312,3192
945.652,3092
946.993,3102
948.333,3119
949.672,3115
951.012,3076
952.351,3097
953.689,3158
955.028,3125
956.365,3111
957.703,3088
959.04,3050
960.377,3024
961.713,3116
963.049,3039
964.385,3060
965.721,3059
967.056,3113
968.39,3103
969.725,3142
971.059,3082
972.392,3100
973.725,3053
975.058,3071
976.391,3063
977.723,3104
979.055,3127
980.386,3068
981.718,3062
983.048,3089
984.379,3029
985.709,3072
987.039,3039
988.368,2964
989.697,3011
991.026,3041
992.354,2990
993.682,2997
995.009,3038
996.337,2953
997.664,2993
998.99,2967
1000.32,2878
1001.64,2957
1002.97,3006
1004.29,3009
1005.62,2983
1006.94,3006
1008.27,2900
1009.59,2949
1010.91,3015
1012.24,2918
1013.56,2977
1014.88,2988
1016.2,2931
1017.52,2962
1018.85,2964
1020.17,2924
1021.49,2996
1022.81,2925
1024.13,2958
1025.45,2998
1026.77,2924
1028.09,2949
1029.4,2938
1030.72,2954
1032.04,2928
1033.36,2963
1034.67,2918
1035.99,2986
1037.31,2955
1038.62,2932
1039.94,2949
1041.25,2908
1042.57,2899
1043.88,2928
1045.2,2987
1046.51,2910
1047.83,2923
1049.14,2912
1050.45,2939
1051.76,2864
1053.08,2970
1054.39,2874
1055.7,2919
1057.01,2902
1058.32,2938
1059.63,2903
1060.94,2895
1062.25,2918
1063.56,2882
1064.87,2851
1066.18,2891
1067.49,2874
1068.8,2890
1070.1,2892
1071.41,2823
1072.72,2918
1074.02,2888
1075.33,2875
1076.64,2859
1077.94,2879
1079.25,2826
1080.55,2843
1081.86,2897
1083.16,2851
1084.47,2851
1085.77,2930
1087.07,2906
1088.37,2837
1089.68,2862
1090.98,2889
1092.28,2875
1093.58,2894
1094.88,2851
1096.18,2817
1097.49,2826
1098.79,2854
1100.09,2827
1101.38,2833
1102.68,2843
1103.98,2812
1105.28,2853
1106.58,2847
1107.88,2802
1109.17,2814
1110.47,2807
1111.77,2846
1113.06,2766
1114.36,2823
1115.66,2803
1116.95,2846
1118.25,2724
1119.54,2838
1120.83,2787
1122.13,2836
1123.42,2726
1124.72,2794
1126.01,2715
1127.3,2790
1128.59,2854
1129.89,2843
1131.18,2798
1132.47,2704
1133.76,2755
1135.05,2808
1136.34,2790
1137.63,2864
1138.92,2772
1140.21,2745
1141.5,2782
1142.79,2771
1144.07,2787
1145.36,2807
1146.65,2814
1147.94,2736
1149.22,2787
1150.51,2787
1151.8,2819
1153.08,2834
1154.37,2738
1155.65,2803
1156.94,2746
1158.22,2769
1159.5,2727
1160.79,2718
1162.07,2790
1163.36,2760
1164.64,2726
1165.92,2686
1167.2,2785
1168.48,2808
1169.77,2771
1171.05,2771
1172.33,2735
1173.61,2754
1174.89,2754
1176.17,2751
1177.45,2754
1178.73,2774
1180,2756
1181.28,2739
1182.56,2793
1183.84,2720
1185.12,2753
1186.39,2694
1187.67,2707
1188.95,2729
1190.22,2739
1191.5,2706
1192.77,2700
1194.05,2732
1195.32,2723
1196.6,2710
1197.87,2656
1199.14,2690
1200.42,2679
1201.69,2690
1202.96,2694
1204.24,2717
1205.51,2673
1206.78,2702
1208.05,2702
1209.32,2627
1210.59,2693
1211.86,2629
1213.13,2610
1214.4,2662
1215.67,2701
1216.94,2619
1218.21,2691
1219.48,2647
1220.75,2649
1222.01,2651
1223.28,2647
1224.55,2660
1225.81,2674
1227.08,2658
1228.35,2621
1229.61,2603
1230.88,2581
1232.14,2630
1233.41,2691
1234.67,2635
1235.94,2659
1237.2,2563
1238.46,2591
1239.73,2573
1240.99,2582
1242.25,2631
1243.51,2620
1244.77,2656
1246.04,2636
1247.3,2637
1248.56,2570
1249.82,2598
1251.08,2625
1252.34,2610
1253.6,2638
1254.86,2575
1256.12,2608
1257.37,2638
1258.63,2574
1259.89,2613
1261.15,2599
1262.4,2610
1263.66,2582
1264.92,2622
1266.17,2564
1267.43,2598
1268.68,2559
1269.94,2549
1271.19,2620
1272.45,2585
1273.7,2560
1274.96,2593
1276.21,2595
1277.46,2566
1278.72,2586
1279.97,2579
1281.22,2568
1282.47,2572
1283.72,2588
1284.98,2577
1286.23,2597
1287.48,2599
1288.73,2599
1289.98,2570
1291.23,2584
1292.48,2611
1293.72,2670
1294.97,2652
1296.22,2710
1297.47,2670
1298.72,2715
1299.96,2724
1301.21,2715
1302.46,2685
1303.7,2704
1304.95,2630
1306.2,2662
1307.44,2598
1308.69,2630
1309.93,2588
1311.17,2580
1312.42,2594
1313.66,2611
1314.91,2598
1316.15,2635
1317.39,2554
1318.63,2576
1319.88,2644
1321.12,2650
1322.36,2598
1323.6,2582
1324.84,2529
1326.08,2575
1327.32,2580
1328.56,2551
1329.8,2516
1331.04,2495
1332.28,2508
1333.52,2615
1334.76,2520
1335.99,2478
1337.23,2489
1338.47,2521
1339.7,2513
1340.94,2493
1342.18,2458
1343.41,2476
1344.65,2499
1345.88,2427
1347.12,2433
1348.35,2433
1349.59,2476
1350.82,2434
1352.06,2464
1353.29,2452
1354.52,2444
1355.76,2453
1356.99,2401
1358.22,2451
1359.45,2446
1360.68,2455
1361.91,2404
1363.14,2411
1364.38,2437
1365.61,2405
1366.84,2386
1368.06,2432
1369.29,2447
1370.52,2448
1371.75,2401
1372.98,2406
1374.21,2409
1375.43,2418
1376.66,2458
1377.89,2452
1379.12,2472
1380.34,2474
1381.57,2464
1382.79,2483
1384.02,2484
1385.24,2454
1386.47,2450
1387.69,2387
1388.92,2463
1390.14,2406
1391.36,2427
1392.59,2412
1393.81,2382
1395.03,2380
1396.26,2391
1397.48,2378
1398.7,2406
1399.92,2399
1401.14,2356
1402.36,2351
1403.58,2366
1404.8,2379
1406.02,2366
1407.24,2354
1408.46,2338
1409.68,2363
1410.9,2379
1412.11,2367
1413.33,2360
1414.55,2314
1415.77,2386
1416.98,2348
1418.2,2326
1419.42,2343
1420.63,2428
1421.85,2452
1423.06,2532
1424.28,2635
1425.49,2598
1426.71,2449
1427.92,2398
1429.13,2325
1430.35,2407
1431.56,2356
1432.77,2318
1433.99,2320
1435.2,2349
1436.41,2336
1437.62,2320
1438.83,2320
1440.04,2349
1441.25,2287
1442.46,2311
1443.67,2251
1444.88,2329
1446.09,2250
1447.3,2259
1448.51,2339
1449.72,2508
1450.93,2375
1452.13,2281
1453.34,2298
1454.55,2271
1455.75,2261
1456.96,2188
1458.17,2244
1459.37,2181
1460.58,2210
1461.78,2241
1462.99,2247
1464.19,2263
1465.4,2255
1466.6,2212
1467.81,2147
1469.01,2160
1470.21,2178
1471.41,2176
1472.62,2152
1473.82,2138
1475.02,2131
1476.22,2123
1477.42,2158
1478.62,2118
1479.82,2083
1481.02,2032
1482.22,2105
1483.42,2070
1484.62,2080
1485.82,2057
1487.02,2083
1488.22,2027
1489.42,2056
1490.62,2039
1491.81,2050
1493.01,1984
1494.21,2011
1495.4,2044
1496.6,1991
1497.79,2022
1498.99,1964
1500.19,1990
1501.38,1979
1502.58,2018
1503.77,2003
1504.96,1979
1506.16,1987
1507.35,1967
1508.54,1934
1509.74,2010
1510.93,1951
1512.12,1948
1513.31,1956
1514.5,1983
1515.7,1942
1516.89,1947
1518.08,1954
1519.27,1923
1520.46,1920
1521.65,1959
1522.84,1930
1524.03,1945
1525.22,1963
1526.4,1951
1527.59,1979
1528.78,2011
1529.97,2011
1531.15,2004
1532.34,1981
1533.53,1924
1534.71,1882
1535.9,1940
1537.09,1885
1538.27,1852
1539.46,1827
1540.64,1892
1541.83,1838
1543.01,1828
1544.19,1877
1545.38,1850
1546.56,1863
1547.74,1854
1548.93,1796
1550.11,1857
1551.29,1818
1552.47,1826
1553.65,1835
1554.84,1830
1556.02,1817
1557.2,1808
1558.38,1795
1559.56,1828
1560.74,1830
1561.92,1770
1563.1,1763
1564.27,1762
1565.45,1773
1566.63,1766
1567.81,1779
1568.99,1708
1570.16,1766
1571.34,1719
1572.52,1730
1573.69,1726
1574.87,1713
1576.04,1691
1577.22,1746
1578.4,1725
1579.57,1675
1580.74,1721
1581.92,1678
1583.09,1695
1584.27,1699
1585.44,1681
1586.61,1648
1587.79,1638
1588.96,1679
1590.13,1673
1591.3,1688
1592.47,1639
1593.64,1651
1594.81,1671
1595.99,1669
1597.16,1635
1598.33,1631
1599.5,1639
1600.66,1618
1601.83,1651
1603,1624
1604.17,1653
1605.34,1633
1606.51,1654
1607.67,1627
1608.84,1607
1610.01,1621
1611.18,1620
1612.34,1613
1613.51,1608
1614.67,1620
1615.84,1573
1617,1570
1618.17,1597
1619.33,1592
1620.5,1628
1621.66,1582
1622.83,1619
1623.99,1572
1625.15,1550
1626.32,1582
1627.48,1605
1628.64,1618
1629.8,1587
1630.96,1595
1632.13,1646
1633.29,1621
1634.45,1669
1635.61,1650
1636.77,1726
1637.93,1706
1639.09,1728
1640.25,1685
1641.4,1689
1642.56,1660
1643.72,1639
1644.88,1615
1646.04,1612
1647.2,1631
1648.35,1552
1649.51,1586
1650.67,1593
1651.82,1595
1652.98,1590
1654.13,1560
1655.29,1547
1656.44,1570
1657.6,1530
1658.75,1489
1659.91,1481
1661.06,1483
1662.21,1461
1663.37,1467
1664.52,1472
1665.67,1490
1666.83,1483
1667.98,1462
1669.13,1462
1670.28,1466
1671.43,1483
1672.58,1472
1673.73,1478
1674.89,1518
1676.04,1504
1677.18,1534
1678.33,1505
1679.48,1566
1680.63,1634
1681.78,1706
1682.93,1791
1684.08,1849
1685.23,1898
1686.37,1883
1687.52,1703
1688.67,1675
1689.81,1687
1690.96,1699
1692.11,1627
1693.25,1599
1694.4,1552
1695.54,1507
1696.69,1497
1697.83,1477
1698.97,1467
1700.12,1424
1701.26,1463
1702.41,1436
1703.55,1400
1704.69,1380
1705.83,1413
1706.98,1399
1708.12,1413
1709.26,1415
1710.4,1368
1711.54,1373
1712.68,1346
1713.82,1364
1714.96,1320
1716.1,1325
1717.24,1339
1718.38,1329
1719.52,1360
1720.66,1371
1721.8,1343
1722.94,1329
1724.07,1330
1725.21,1340
1726.35,1310
1727.49,1287
1728.62,1325
1729.76,1311
1730.89,1312
1732.03,1341
1733.17,1326
1734.3,1301
1735.44,1329
1736.57,1331
1737.7,1292
1738.84,1311
1739.97,1267
1741.11,1311
1742.24,1292
1743.37,1280
1744.5,1304
1745.64,1252
1746.77,1272
1747.9,1302
1749.03,1292
1750.16,1284
1751.29,1291
1752.42,1305
1753.56,1279
1754.69,1253
1755.81,1275
1756.94,1283
1758.07,1287
1759.2,1244
1760.33,1270
1761.46,1294
1762.59,1271
1763.71,1245
1764.84,1263
1765.97,1294
1767.1,1282
1768.22,1323
1769.35,1344
1770.48,1364
1771.6,1408
1772.73,1444
1773.85,1359
1774.98,1356
1776.1,1312
1777.23,1308
1778.35,1294
1779.47,1261
1780.6,1287
1781.72,1250
1782.84,1273
1783.96,1243
1785.09,1252
1786.21,1244
1787.33,1252
1788.45,1239
1789.57,1251
1790.69,1239
1791.81,1244
1792.93,1239
1794.05,1224
1795.17,1215
1796.29,1236
1797.41,1246
1798.53,1214
1799.65,1239
1800.77,1264
1801.89,1215
1803,1222
1804.12,1214
1805.24,1252
1806.36,1228
1807.47,1238
1808.59,1234
1809.71,1211
1810.82,1230
1811.94,1237
1813.05,1201
1814.17,1214
1815.28,1214
1816.4,1241
1817.51,1237
1818.62,1199
1819.74,1204
1820.85,1209
1821.96,1208
1823.08,1221
1824.19,1222
1825.3,1210
1826.41,1185
1827.52,1211
1828.63,1211
1829.75,1206
1830.86,1236
1831.97,1207
1833.08,1223
1834.19,1214
1835.3,1207
1836.4,1207
1837.51,1218
1838.62,1229
1839.73,1239
1840.84,1199
1841.95,1192
1843.05,1223
1844.16,1203
1845.27,1183
1846.38,1206
1847.48,1191
1848.59,1226
1849.69,1211
1850.8,1196
1851.91,1231
1853.01,1236
1854.11,1218
1855.22,1182
1856.32,1198
1857.43,1200
1858.53,1193
1859.63,1215
1860.74,1191
1861.84,1213
1862.94,1180
1864.05,1208
1865.15,1202
1866.25,1191
1867.35,1213
1868.45,1224
1869.55,1191
1870.65,1219
1871.75,1211
1872.85,1209
1873.95,1210
1875.05,1208
1876.15,1189
1877.25,1246
1878.35,1230
1879.45,1227
1880.55,1192
1881.64,1213
1882.74,1242
1883.84,1182
1884.94,1227
1886.03,1210
1887.13,1215
1888.22,1222
1889.32,1219
1890.42,1197
1891.51,1220
1892.61,1190
1893.7,1221
1894.8,1227
1895.89,1166
1896.98,1185
1898.08,1232
1899.17,1202
1900.26,1248
1901.36,1196
1902.45,1203
1903.54,1190
1904.63,1228
1905.73,1195
1906.82,1231
1907.91,1214
1909,1207
1910.09,1231
1911.18,1197
1912.27,1246
1913.36,1233
1914.45,1213
1915.54,1201
1916.63,1219
1917.72,1217
1918.8,1228
1919.89,1219
1920.98,1243
1922.07,1227
1923.16,1175
1924.24,1200
1925.33,1199
1926.42,1223
1927.5,1237
1928.59,1221
1929.67,1210
1930.76,1209
1931.84,1204
1932.93,1227
1934.01,1262
1935.1,1265
1936.18,1231
1937.27,1245
1938.35,1243
1939.43,1227
1940.52,1231
1941.6,1228
1942.68,1254
1943.76,1209
1944.84,1251
1945.93,1218
1947.01,1219
1948.09,1237
1949.17,1244
1950.25,1245
1951.33,1253
1952.41,1209
1953.49,1233
1954.57,1229
1955.65,1242
1956.73,1230
1957.81,1225
1958.88,1247
1959.96,1229
1961.04,1207
1962.12,1238
1963.19,1228
1964.27,1206
1965.35,1240
1966.43,1234
1967.5,1240
1968.58,1228
1969.65,1205
1970.73,1258
1971.8,1250
1972.88,1239
1973.95,1247
1975.03,1244
1976.1,1230
1977.17,1249
1978.25,1227
1979.32,1242
1980.39,1228
1981.47,1205
1982.54,1264
1983.61,1218
1984.68,1236
1985.75,1224
1986.83,1255
1987.9,1250
1988.97,1255
1990.04,1264
1991.11,1240
1992.18,1260
1993.25,1231
1994.32,1236
1995.39,1254
1996.46,1241
1997.52,1239
1998.59,1243
1999.66,1298
2000.73,1266
2001.8,1239
2002.86,1272
2003.93,1278
2005,1278
2006.06,1259
2007.13,1279
2008.2,1290
2009.26,1264
2010.33,1259
2011.39,1228
2012.46,1272
2013.52,1265
2014.59,1255
2015.65,1232
2016.71,1271
2017.78,1257
2018.84,1248
2019.9,1271
2020.97,1265
2022.03,1277
2023.09,1242
2024.15,1255
2025.21,1289
2026.28,1307
2027.34,1277
2028.4,1280
2029.46,1307
2030.52,1294
2031.58,1264
2032.64,1247
2033.7,1272
2034.76,1272