File: example raman data/GM1_Fiber002.V2_Black_C85umxD12.5_240sec.csv
340.52,12963
342.025,12772
343.528,12598
345.032,12731
346.535,12657
348.038,12542
349.54,12451
351.042,12510
352.543,12432
354.044,12456
355.545,12446
357.045,12419
358.545,12464
360.044,12426
361.543,12242
363.041,12248
364.539,12284
366.037,12320
367.534,12191
369.031,12310
370.528,12230
372.024,12201
373.519,12170
375.015,12333
376.509,12302
378.004,12352
379.498,12392
380.991,12590
382.485,12650
383.977,12700
385.47,13328
386.962,13895
388.453,14736
389.944,16173
391.435,16865
392.925,14914
394.415,12724
395.905,11975
397.394,11759
398.882,11707
400.371,11455
401.858,11380
403.346,11268
404.833,11269
406.319,11153
407.806,11274
409.291,11177
410.777,11210
412.262,11189
413.746,11187
415.231,11091
416.714,11142
418.198,11201
419.681,11049
421.163,10989
422.645,11015
424.127,11071
425.608,10992
427.089,10910
428.57,10942
430.05,11041
431.53,10896
433.009,11002
434.488,10949
435.966,10832
437.444,10921
438.922,10886
440.399,10739
441.876,10721
443.353,10723
444.829,10628
446.304,10753
447.78,10523
449.254,10492
450.729,10426
452.203,10547
453.677,10485
455.15,10485
456.623,10542
458.095,10334
459.567,10355
461.039,10484
462.51,10431
463.981,10417
465.451,10433
466.921,10366
468.391,10477
469.86,10459
471.329,10303
472.797,10367
474.265,10515
475.733,10551
477.2,10448
478.667,10374
480.133,10390
481.599,10240
483.065,10390
484.53,10279
485.995,10199
487.459,10464
488.923,10348
490.387,10308
491.85,10207
493.313,10398
494.775,10367
496.237,10106
497.699,10089
499.16,9986
500.621,10126
502.081,9948
503.541,10097
505.001,9930
506.46,10061
507.919,9987
509.377,9946
510.835,9903
512.293,9855
513.75,9975
515.207,9912
516.663,9910
518.119,9837
519.575,9756
521.03,9784
522.485,9887
523.939,9627
525.393,9908
526.847,9798
528.3,9851
529.753,9718
531.205,9683
532.657,9492
534.109,9592
535.56,9737
537.011,9767
538.462,9703
539.912,9575
541.361,9675
542.811,9623
544.26,9662
545.708,9575
547.156,9524
548.604,9566
550.051,9561
551.498,9673
552.945,9475
554.391,9563
555.837,9584
557.282,9665
558.727,9600
560.171,9644
561.616,9592
563.059,9609
564.503,9728
565.946,9556
567.388,9559
568.831,9569
570.272,9630
571.714,9495
573.155,9595
574.595,9547
576.036,9582
577.476,9650
578.915,9653
580.354,9606
581.793,9553
583.231,9715
584.669,9626
586.106,9495
587.544,9523
588.98,9557
590.417,9664
591.853,9517
593.288,9454
594.723,9532
596.158,9446
597.592,9478
599.026,9446
600.46,9526
601.893,9506
603.326,9620
604.758,9711
606.19,9583
607.622,9343
609.053,9126
610.484,9337
611.915,9236
613.345,9238
614.775,9197
616.204,9059
617.633,9111
619.061,9183
620.49,9164
621.917,9079
623.345,9034
624.772,9017
626.198,8916
627.625,9026
629.05,8932
630.476,9026
631.901,9024
633.326,8860
634.75,8854
636.174,8959
637.597,8730
639.021,8640
640.443,8745
641.866,8742
643.288,8750
644.709,8797
646.13,8797
647.551,8804
648.972,8801
650.392,8767
651.811,8561
653.231,8606
654.65,8547
656.068,8507
657.486,8622
658.904,8560
660.321,8558
661.738,8627
663.155,8582
664.571,8654
665.987,8581
667.403,8529
668.818,8610
670.232,8486
671.647,8492
673.061,8473
674.474,8532
675.887,8464
677.3,8442
678.712,8566
680.124,8372
681.536,8494
682.947,8572
684.358,8518
685.769,8515
687.179,8483
688.588,8487
689.998,8457
691.407,8462
692.815,8587
694.224,8532
695.631,8547
697.039,8450
698.446,8494
699.853,8335
701.259,8458
702.665,8401
704.07,8559
705.475,8452
706.88,8420
708.285,8366
709.689,8466
711.092,8480
712.496,8395
713.898,8324
715.301,8399
716.703,8343
718.105,8523
719.506,8427
720.907,8391
722.308,8388
723.708,8432
725.108,8528
726.507,8391
727.907,8426
729.305,8432
730.704,8431
732.102,8376
733.499,8385
734.896,8356
736.293,8312
737.69,8382
739.086,8253
740.482,8294
741.877,8283
743.272,8422
744.666,8326
746.061,8481
747.454,8441
748.848,8278
750.241,8348
751.634,8364
753.026,8350
754.418,8289
755.81,8446
757.201,8423
758.592,8344
759.982,8449
761.372,8384
762.762,8414
764.151,8327
765.54,8473
766.929,8240
768.317,8382
769.705,8318
771.092,8408
772.479,8320
773.866,8338
775.253,8450
776.639,8451
778.024,8419
779.409,8410
780.794,8408
782.179,8398
783.563,8531
784.947,8518
786.33,8777
787.713,8693
789.096,8630
790.478,8667
791.86,8767
793.241,8803
794.622,8784
796.003,8820
797.384,8879
798.764,8797
800.143,8873
801.523,8870
802.902,8884
804.28,8775
805.658,8726
807.036,8880
808.414,9018
809.791,8928
811.167,8881
812.544,9005
813.92,8888
815.295,8962
816.67,8907
818.045,8953
819.42,9017
820.794,8977
822.168,8979
823.541,8880
824.914,8926
826.287,9051
827.659,8961
829.031,9009
830.402,8945
831.774,8970
833.144,9022
834.515,8960
835.885,9000
837.255,8934
838.624,8967
839.993,8928
841.362,8921
842.73,9076
844.098,9089
845.465,9113
846.832,9026
848.199,9108
849.565,9092
850.931,9120
852.297,9047
853.662,9198
855.027,9190
856.392,9259
857.756,9269
859.12,9219
860.484,9286
861.847,9234
863.209,9261
864.572,9270
865.934,9409
867.295,9495
868.657,9486
870.018,9430
871.378,9528
872.738,9500
874.098,9583
875.458,9557
876.817,9549
878.176,9608
879.534,9567
880.892,9654
882.25,9595
883.607,9628
884.964,9776
886.32,9648
887.677,9646
889.033,9628
890.388,9708
891.743,9696
893.098,9722
894.452,9734
895.806,9623
897.16,9662
898.513,9697
899.866,9798
901.219,9728
902.571,9759
903.923,9902
905.274,9903
906.626,9878
907.976,9960
909.327,9936
910.677,10040
912.027,10147
913.376,10122
914.725,10170
916.074,10289
917.422,10362
918.77,10392
920.117,10332
921.464,10415
922.811,10535
924.158,10430
925.504,10424
926.85,10446
928.195,10513
929.54,10507
930.885,10514
932.229,10556
933.573,10447
934.916,10454
936.26,10607
937.603,10492
938.945,10729
940.287,10557
941.629,10592
942.971,10560
944.312,10456
945.652,10372
946.993,10430
948.333,10438
949.672,10435
951.012,10352
952.351,10369
953.689,10398
955.028,10322
956.365,10258
957.703,10183
959.04,10152
960.377,10059
961.713,10194
963.049,10176
964.385,9993
965.721,10051
967.056,10098
968.39,9926
969.725,10026
971.059,10000
972.392,9802
973.725,9816
975.058,9810
976.391,9667
977.723,9593
979.055,9508
980.386,9535
981.718,9501
983.048,9623
984.379,9509
985.709,9406
987.039,9404
988.368,9365
989.697,9267
991.026,9306
992.354,9357
993.682,9196
995.009,9284
996.337,9201
997.664,9117
998.99,9112
1000.32,9151
1001.64,9072
1002.97,9049
1004.29,9047
1005.62,9028
1006.94,9013
1008.27,8895
1009.59,8863
1010.91,8950
1012.24,8894
1013.56,8753
1014.88,8752
1016.2,8696
1017.52,8670
1018.85,8727
1020.17,8564
1021.49,8678
1022.81,8768
1024.13,8624
1025.45,8738
1026.77,8754
1028.09,8754
1029.4,8810
1030.72,8750
1032.04,8905
1033.36,8840
1034.67,8788
1035.99,8683
1037.31,8712
1038.62,8699
1039.94,8683
1041.25,8650
1042.57,8614
1043.88,8729
1045.2,8671
1046.51,8731
1047.83,8594
1049.14,8540
1050.45,8560
1051.76,8664
1053.08,8641
1054.39,8559
1055.7,8518
1057.01,8644
1058.32,8716
1059.63,8744
1060.94,8579
1062.25,8647
1063.56,8701
1064.87,8739
1066.18,8716
1067.49,8935
1068.8,8902
1070.1,8910
1071.41,8729
1072.72,8743
1074.02,8847
1075.33,8987
1076.64,8956
1077.94,8935
1079.25,8955
1080.55,8946
1081.86,8963
1083.16,9030
1084.47,9128
1085.77,8912
1087.07,9082
1088.37,9057
1089.68,9159
1090.98,9087
1092.28,9094
1093.58,9136
1094.88,9196
1096.18,9134
1097.49,9144
1098.79,9253
1100.09,9319
1101.38,9242
1102.68,9335
1103.98,9388
1105.28,9496
1106.58,9380
1107.88,9360
1109.17,9393
1110.47,9462
1111.77,9432
1113.06,9532
1114.36,9593
1115.66,9576
1116.95,9688
1118.25,9672
1119.54,9756
1120.83,9865
1122.13,10012
1123.42,10168
1124.72,10311
1126.01,10554
1127.3,10870
1128.59,11142
1129.89,11597
1131.18,12022
1132.47,12623
1133.76,12963
1135.05,13390
1136.34,13338
1137.63,13135
1138.92,12602
1140.21,12227
1141.5,12058
1142.79,11925
1144.07,11958
1145.36,12154
1146.65,12247
1147.94,12201
1149.22,12548
1150.51,12497
1151.8,12600
1153.08,12599
1154.37,12674
1155.65,12546
1156.94,12393
1158.22,12489
1159.5,12121
1160.79,12090
1162.07,12133
1163.36,11726
1164.64,11519
1165.92,11406
1167.2,11087
1168.48,10853
1169.77,10629
1171.05,10357
1172.33,10272
1173.61,10176
1174.89,9918
1176.17,9864
1177.45,9730
1178.73,9639
1180,9561
1181.28,9516
1182.56,9567
1183.84,9429
1185.12,9447
1186.39,9411
1187.67,9524
1188.95,9612
1190.22,9677
1191.5,9870
1192.77,9759
1194.05,10094
1195.32,10267
1196.6,10691
1197.87,10949
1199.14,11670
1200.42,11694
1201.69,11502
1202.96,10838
1204.24,10268
1205.51,9666
1206.78,9492
1208.05,9138
1209.32,9052
1210.59,9031
1211.86,9011
1213.13,8857
1214.4,8852
1215.67,8960
1216.94,8704
1218.21,8780
1219.48,8785
1220.75,8591
1222.01,8614
1223.28,8628
1224.55,8700
1225.81,8722
1227.08,8639
1228.35,8651
1229.61,8671
1230.88,8643
1232.14,8671
1233.41,8707
1234.67,8675
1235.94,8734
1237.2,8830
1238.46,8979
1239.73,8922
1240.99,8804
1242.25,8840
1243.51,8884
1244.77,8848
1246.04,8669
1247.3,8639
1248.56,8635
1249.82,8637
1251.08,8683
1252.34,8648
1253.6,8762
1254.86,8692
1256.12,8699
1257.37,8686
1258.63,8599
1259.89,8632
1261.15,8703
1262.4,8814
1263.66,8899
1264.92,8949
1266.17,8882
1267.43,8717
1268.68,8762
1269.94,8649
1271.19,8655
1272.45,8639
1273.7,8651
1274.96,8657
1276.21,8639
1277.46,8662
1278.72,8673
1279.97,8729
1281.22,8736
1282.47,8744
1283.72,8698
1284.98,8748
1286.23,8902
1287.48,8808
1288.73,8809
1289.98,8937
1291.23,9025
1292.48,8956
1293.72,9103
1294.97,9078
1296.22,9105
1297.47,9238
1298.72,9341
1299.96,9425
1301.21,9495
1302.46,9345
1303.7,9387
1304.95,9331
1306.2,9303
1307.44,9207
1308.69,9322
1309.93,9410
1311.17,9383
1312.42,9320
1313.66,9427
1314.91,9432
1316.15,9387
1317.39,9322
1318.63,9430
1319.88,9453
1321.12,9583
1322.36,9496
1323.6,9384
1324.84,9471
1326.08,9623
1327.32,9642
1328.56,9503
1329.8,9648
1331.04,9715
1332.28,10022
1333.52,9838
1334.76,9936
1335.99,9942
1337.23,10000
1338.47,9915
1339.7,9922
1340.94,10035
1342.18,10139
1343.41,10118
1344.65,10383
1345.88,10320
1347.12,10309
1348.35,10454
1349.59,10305
1350.82,10543
1352.06,10649
1353.29,10798
1354.52,11061
1355.76,11310
1356.99,11502
1358.22,11896
1359.45,12193
1360.68,13768
1361.91,13339
1363.14,14091
1364.38,15051
1365.61,16187
1366.84,16943
1368.06,16564
1369.29,15924
1370.52,15642
1371.75,15222
1372.98,15136
1374.21,14989
1375.43,14642
1376.66,14498
1377.89,14075
1379.12,13847
1380.34,13542
1381.57,13249
1382.79,13157
1384.02,12858
1385.24,12526
1386.47,12345
1387.69,12132
1388.92,11850
1390.14,11685
1391.36,11471
1392.59,11171
1393.81,10955
1395.03,10852
1396.26,10601
1397.48,10390
1398.7,10291
1399.92,10080
1401.14,10094
1402.36,9779
1403.58,9700
1404.8,9783
1406.02,9738
1407.24,9591
1408.46,9572
1409.68,9594
1410.9,9623
1412.11,9495
1413.33,9490
1414.55,9520
1415.77,9450
1416.98,9443
1418.2,9449
1419.42,9694
1420.63,9779
1421.85,10176
1423.06,11134
1424.28,11560
1425.49,10824
1426.71,10000
1427.92,9803
1429.13,9588
1430.35,9587
1431.56,9519
1432.77,9465
1433.99,9534
1435.2,9516
1436.41,9581
1437.62,9454
1438.83,9260
1440.04,9371
1441.25,9090
1442.46,9059
1443.67,8873
1444.88,8807
1446.09,8838
1447.3,8963
1448.51,9551
1449.72,10803
1450.93,9844
1452.13,9175
1453.34,8870
1454.55,8550
1455.75,8567
1456.96,8526
1458.17,8423
1459.37,8406
1460.58,8511
1461.78,8577
1462.99,8642
1464.19,8726
1465.4,8736
1466.6,8489
1467.81,8255
1469.01,8205
1470.21,8355
1471.41,8145
1472.62,8235
1473.82,8290
1475.02,8283
1476.22,8243
1477.42,8185
1478.62,8176
1479.82,8246
1481.02,8447
1482.22,8464
1483.42,8526
1484.62,8726
1485.82,8863
1487.02,8957
1488.22,8966
1489.42,9144
1490.62,9268
1491.81,9342
1493.01,9431
1494.21,9782
1495.4,9992
1496.6,10516
1497.79,10812
1498.99,11438
1500.19,12028
1501.38,12468
1502.58,13128
1503.77,13532
1504.96,13833
1506.16,14247
1507.35,14200
1508.54,14210
1509.74,13839
1510.93,13775
1512.12,13375
1513.31,13112
1514.5,12853
1515.7,12600
1516.89,12448
1518.08,12211
1519.27,11962
1520.46,11934
1521.65,11792
1522.84,11677
1524.03,11424
1525.22,11317
1526.4,11046
1527.59,10757
1528.78,10717
1529.97,10514
1531.15,10488
1532.34,10221
1533.53,9549
1534.71,9288
1535.9,9029
1537.09,8683
1538.27,8463
1539.46,8167
1540.64,8220
1541.83,7944
1543.01,7806
1544.19,7710
1545.38,7670
1546.56,7481
1547.74,7475
1548.93,7369
1550.11,7217
1551.29,7234
1552.47,7228
1553.65,7074
1554.84,7093
1556.02,7088
1557.2,6988
1558.38,6864
1559.56,7035
1560.74,6871
1561.92,6875
1563.1,6838
1564.27,6795
1565.45,6770
1566.63,6706
1567.81,6689
1568.99,6737
1570.16,6786
1571.34,6787
1572.52,6713
1573.69,6770
1574.87,6634
1576.04,6718
1577.22,6735
1578.4,6652
1579.57,6683
1580.74,6646
1581.92,6481
1583.09,6493
1584.27,6438
1585.44,6476
1586.61,6383
1587.79,6443
1588.96,6406
1590.13,6369
1591.3,6302
1592.47,6404
1593.64,6362
1594.81,6386
1595.99,6261
1597.16,6417
1598.33,6364
1599.5,6314
1600.66,6388
1601.83,6346
1603,6456
1604.17,6371
1605.34,6410
1606.51,6500
1607.67,6408
1608.84,6482
1610.01,6406
1611.18,6306
1612.34,6239
1613.51,6158
1614.67,6210
1615.84,6171
1617,6147
1618.17,6074
1619.33,6087
1620.5,6051
1621.66,6032
1622.83,5983
1623.99,6007
1625.15,5956
1626.32,6058
1627.48,5920
1628.64,5964
1629.8,5916
1630.96,5871
1632.13,5964
1633.29,5990
1634.45,5944
1635.61,5891
1636.77,5926
1637.93,5924
1639.09,5978
1640.25,5863
1641.4,5809
1642.56,5840
1643.72,5904
1644.88,5906
1646.04,5860
1647.2,5847
1648.35,5818
1649.51,5886
1650.67,5912
1651.82,5856
1652.98,5839
1654.13,5840
1655.29,5812
1656.44,5846
1657.6,5850
1658.75,5843
1659.91,5811
1661.06,5879
1662.21,5860
1663.37,5823
1664.52,5901
1665.67,5922
1666.83,5865
1667.98,5916
1669.13,5958
1670.28,6016
1671.43,6097
1672.58,6162
1673.73,6166
1674.89,6324
1676.04,6360
1677.18,6423
1678.33,6643
1679.48,6921
1680.63,7144
1681.78,7581
1682.93,8379
1684.08,8983
1685.23,9818
1686.37,9466
1687.52,7881
1688.67,7481
1689.81,7870
1690.96,7839
1692.11,7605
1693.25,7156
1694.4,6794
1695.54,6532
1696.69,6346
1697.83,6260
1698.97,6121
1700.12,5951
1701.26,5883
1702.41,5844
1703.55,5843
1704.69,6390
1705.83,6210
1706.98,5652
1708.12,5730
1709.26,5591
1710.4,5560
1711.54,5482
1712.68,5415
1713.82,5491
1714.96,5482
1716.1,5363
1717.24,5335
1718.38,5324
1719.52,5336
1720.66,5208
1721.8,5312
1722.94,5316
1724.07,5316
1725.21,5315
1726.35,5292
1727.49,5332
1728.62,5187
1729.76,5258
1730.89,5223
1732.03,5182
1733.17,5188
1734.3,5290
1735.44,5178
1736.57,5188
1737.7,5195
1738.84,5190
1739.97,5243
1741.11,5193
1742.24,5183
1743.37,5212
1744.5,5161
1745.64,5164
1746.77,5138
1747.9,5224
1749.03,5126
1750.16,5038
1751.29,5187
1752.42,5139
1753.56,5213
1754.69,5134
1755.81,5256
1756.94,5125
1758.07,5136
1759.2,5184
1760.33,5236
1761.46,5202
1762.59,5196
1763.71,5187
1764.84,5215
1765.97,5316
1767.1,5203
1768.22,5369
1769.35,5719
1770.48,6094
1771.6,6332
1772.73,6327
1773.85,6120
1774.98,5724
1776.1,5519
1777.23,5519
1778.35,5358
1779.47,5221
1780.6,5223
1781.72,5155
1782.84,5092
1783.96,5067
1785.09,5103
1786.21,5076
1787.33,5146
1788.45,5055
1789.57,5052
1790.69,5098
1791.81,5025
1792.93,5046
1794.05,5121
1795.17,4967
1796.29,5078
1797.41,5139
1798.53,5040
1799.65,5006
1800.77,5075
1801.89,5032
1803,5005
1804.12,5039
1805.24,5091
1806.36,4994
1807.47,5023
1808.59,4910
1809.71,5051
1810.82,5091
1811.94,5033
1813.05,5022
1814.17,4978
1815.28,5016
1816.4,5007
1817.51,5018
1818.62,4963
1819.74,4930
1820.85,5002
1821.96,5022
1823.08,5067
1824.19,4951
1825.3,5035
1826.41,5040
1827.52,4923
1828.63,5036
1829.75,4977
1830.86,5034
1831.97,4973
1833.08,5090
1834.19,4995
1835.3,5022
1836.4,4978
1837.51,4952
1838.62,4988
1839.73,5011
1840.84,4975
1841.95,5048
1843.05,5035
1844.16,5053
1845.27,4910
1846.38,5003
1847.48,4967
1848.59,5021
1849.69,4980
1850.8,5051
1851.91,5068
1853.01,5003
1854.11,4952
1855.22,4934
1856.32,4950
1857.43,5000
1858.53,4934
1859.63,5008
1860.74,4903
1861.84,4979
1862.94,4847
1864.05,4929
1865.15,4982
1866.25,4969
1867.35,4883
1868.45,4941
1869.55,4919
1870.65,5004
1871.75,4935
1872.85,4878
1873.95,5038
1875.05,5060
1876.15,4992
1877.25,5006
1878.35,5017
1879.45,4967
1880.55,4981
1881.64,5008
1882.74,5064
1883.84,5028
1884.94,4974
1886.03,4993
1887.13,5001
1888.22,5089
1889.32,4902
1890.42,4931
1891.51,5054
1892.61,5049
1893.7,5025
1894.8,5027
1895.89,5034
1896.98,5008
1898.08,5022
1899.17,5022
1900.26,5022
1901.36,5072
1902.45,5096
1903.54,5031
1904.63,5020
1905.73,5006
1906.82,5112
1907.91,5091
1909,5011
1910.09,5004
1911.18,4990
1912.27,5056
1913.36,5068
1914.45,5154
1915.54,5127
1916.63,5138
1917.72,5114
1918.8,5110
1919.89,5108
1920.98,5098
1922.07,5107
1923.16,5059
1924.24,5018
1925.33,5119
1926.42,5103
1927.5,5123
1928.59,5143
1929.67,5136
1930.76,5164
1931.84,5219
1932.93,5222
1934.01,5252
1935.1,5292
1936.18,5399
1937.27,5371
1938.35,5345
1939.43,5254
1940.52,5309
1941.6,5238
1942.68,5235
1943.76,5159
1944.84,5263
1945.93,5230
1947.01,5173
1948.09,5152
1949.17,5122
1950.25,5201
1951.33,5150
1952.41,5173
1953.49,5240
1954.57,5205
1955.65,5247
1956.73,5253
1957.81,5166
1958.88,5193
1959.96,5131
1961.04,5213
1962.12,5155
1963.19,5183
1964.27,5150
1965.35,5204
1966.43,5204
1967.5,5254
1968.58,5234
1969.65,5261
1970.73,5268
1971.8,5373
1972.88,5301
1973.95,5222
1975.03,5142
1976.1,5286
1977.17,5309
1978.25,5236
1979.32,5276
1980.39,5302
1981.47,5294
1982.54,5286
1983.61,5291
1984.68,5225
1985.75,5274
1986.83,5326
1987.9,5446
1988.97,5308
1990.04,5338
1991.11,5394
1992.18,5371
1993.25,5339
1994.32,5359
1995.39,5403
1996.46,5343
1997.52,5382
1998.59,5422
1999.66,5320
2000.73,5338
2001.8,5427
2002.86,5463
2003.93,5311
2005,5385
2006.06,5423
2007.13,5376
2008.2,5379
2009.26,5408
2010.33,5451
2011.39,5504
2012.46,5476
2013.52,5475
2014.59,5362
2015.65,5496
2016.71,5531
2017.78,5521
2018.84,5493
2019.9,5428
2020.97,5442
2022.03,5459
2023.09,5406
2024.15,5527
2025.21,5480
2026.28,5450
2027.34,5463
2028.4,5590
2029.46,5559
2030.52,5515
2031.58,5553
2032.64,5535
2033.7,5609
2034.76,5648