File: example raman data/GM1_Fiber002.V3_Black_C85umxD12.5_600sec.csv
340.52,27433
342.025,27144
343.528,27090
345.032,26992
346.535,26707
348.038,26738
349.54,26642
351.042,26479
352.543,26395
354.044,26533
355.545,26559
357.045,26525
358.545,26367
360.044,26271
361.543,26062
363.041,26084
364.539,26049
366.037,26090
367.534,26112
369.031,26227
370.528,26301
372.024,26296
373.519,26233
375.015,26632
376.509,26322
378.004,26580
379.498,26740
380.991,27281
382.485,27542
383.977,27892
385.47,29042
386.962,30349
388.453,32795
389.944,36089
391.435,37763
392.925,33094
394.415,27713
395.905,26092
397.394,25074
398.882,24765
400.371,24575
401.858,24377
403.346,24301
404.833,23835
406.319,23916
407.806,23762
409.291,23769
410.777,23927
412.262,23867
413.746,23744
415.231,23626
416.714,23646
418.198,23627
419.681,23818
421.163,23652
422.645,23616
424.127,23436
425.608,23360
427.089,23198
428.57,23323
430.05,23175
431.53,23395
433.009,23055
434.488,23154
435.966,23176
437.444,22955
438.922,22731
440.399,23022
441.876,22655
443.353,22523
444.829,22531
446.304,22352
447.78,22279
449.254,22348
450.729,22376
452.203,22316
453.677,22412
455.15,22188
456.623,22120
458.095,21802
459.567,21853
461.039,22015
462.51,22787
463.981,23319
465.451,23051
466.921,22743
468.391,24050
469.86,22853
471.329,25108
472.797,22236
474.265,22072
475.733,22326
477.2,21972
478.667,21910
480.133,21880
481.599,22021
483.065,22148
484.53,22021
485.995,21918
487.459,21900
488.923,21900
490.387,21916
491.85,21722
493.313,21872
494.775,21932
496.237,21533
497.699,21373
499.16,21611
500.621,21163
502.081,21391
503.541,21273
505.001,21283
506.46,21220
507.919,21284
509.377,21303
510.835,21176
512.293,23377
513.75,24812
515.207,24243
516.663,23828
518.119,30084
519.575,22947
521.03,20722
522.485,20679
523.939,20696
525.393,20754
526.847,20888
528.3,20503
529.753,20682
531.205,20676
532.657,20571
534.109,20620
535.56,20480
537.011,20515
538.462,20367
539.912,20495
541.361,20284
542.811,20415
544.26,20331
545.708,20283
547.156,20360
548.604,20422
550.051,20219
551.498,20327
552.945,21066
554.391,21122
555.837,20863
557.282,20415
558.727,20506
560.171,20501
561.616,20500
563.059,20327
564.503,20464
565.946,20271
567.388,20181
568.831,20411
570.272,20232
571.714,20370
573.155,20429
574.595,20325
576.036,20308
577.476,20562
578.915,20530
580.354,20637
581.793,20632
583.231,20367
584.669,20524
586.106,20355
587.544,20462
588.98,20344
590.417,20176
591.853,20410
593.288,20438
594.723,20443
596.158,20376
597.592,20546
599.026,20327
600.46,20374
601.893,20249
603.326,20310
604.758,20852
606.19,20265
607.622,19734
609.053,19741
610.484,19651
611.915,19668
613.345,19658
614.775,19463
616.204,19393
617.633,19355
619.061,19395
620.49,19324
621.917,19118
623.345,19057
624.772,19368
626.198,18883
627.625,19068
629.05,19134
630.476,18890
631.901,18957
633.326,18878
634.75,18896
636.174,18790
637.597,18822
639.021,18656
640.443,18663
641.866,18733
643.288,18583
644.709,18635
646.13,18719
647.551,18754
648.972,18506
650.392,18578
651.811,18316
653.231,18571
654.65,18362
656.068,18258
657.486,18222
658.904,18287
660.321,18304
661.738,18079
663.155,18240
664.571,18512
665.987,18266
667.403,18140
668.818,18176
670.232,18051
671.647,18225
673.061,18157
674.474,18361
675.887,18151
677.3,18326
678.712,18334
680.124,18149
681.536,18317
682.947,18274
684.358,18199
685.769,18104
687.179,18194
688.588,18229
689.998,18313
691.407,18012
692.815,18123
694.224,18100
695.631,18049
697.039,18092
698.446,17978
699.853,17995
701.259,18003
702.665,17986
704.07,18083
705.475,18057
706.88,18081
708.285,18085
709.689,18131
711.092,18287
712.496,18235
713.898,17994
715.301,18076
716.703,18120
718.105,18069
719.506,18145
720.907,18052
722.308,18120
723.708,17991
725.108,18139
726.507,18081
727.907,18067
729.305,17915
730.704,17946
732.102,17945
733.499,18067
734.896,17911
736.293,17686
737.69,17894
739.086,17800
740.482,17860
741.877,18015
743.272,19115
744.666,18077
746.061,18090
747.454,18167
748.848,18057
750.241,17994
751.634,18172
753.026,18216
754.418,18076
755.81,17969
757.201,18070
758.592,18177
759.982,18199
761.372,18093
762.762,17946
764.151,18059
765.54,18124
766.929,18073
768.317,17918
769.705,18236
771.092,18182
772.479,17978
773.866,18030
775.253,18096
776.639,18086
778.024,18266
779.409,18139
780.794,18214
782.179,18336
783.563,18497
784.947,18413
786.33,18560
787.713,18781
789.096,18649
790.478,18818
791.86,18930
793.241,18919
794.622,18967
796.003,18958
797.384,19015
798.764,19053
800.143,19079
801.523,19001
802.902,18834
804.28,19100
805.658,19050
807.036,19180
808.414,19302
809.791,19342
811.167,19184
812.544,19117
813.92,19135
815.295,19013
816.67,19332
818.045,19419
819.42,19250
820.794,19467
822.168,19433
823.541,19457
824.914,19429
826.287,19205
827.659,19402
829.031,19368
830.402,19536
831.774,19325
833.144,19430
834.515,19387
835.885,19474
837.255,19503
838.624,19495
839.993,19518
841.362,19391
842.73,19522
844.098,19607
845.465,19602
846.832,19599
848.199,19682
849.565,19687
850.931,19551
852.297,19765
853.662,19570
855.027,19661
856.392,19715
857.756,20095
859.12,19964
860.484,20020
861.847,20184
863.209,20100
864.572,20371
865.934,20499
867.295,20475
868.657,20872
870.018,20500
871.378,20680
872.738,20515
874.098,20662
875.458,20697
876.817,20727
878.176,20808
879.534,20958
880.892,21052
882.25,20769
883.607,20903
884.964,20960
886.32,21019
887.677,20836
889.033,20834
890.388,20868
891.743,20793
893.098,20970
894.452,20864
895.806,20857
897.16,20753
898.513,20815
899.866,20858
901.219,21132
902.571,21330
903.923,21294
905.274,21677
906.626,21497
907.976,21478
909.327,21560
910.677,21613
912.027,21807
913.376,21878
914.725,22115
916.074,22116
917.422,22496
918.77,22139
920.117,22453
921.464,22468
922.811,22513
924.158,22375
925.504,22691
926.85,22693
928.195,22611
929.54,22454
930.885,22698
932.229,22950
933.573,22783
934.916,22812
936.26,22895
937.603,22878
938.945,22739
940.287,22842
941.629,22784
942.971,23079
944.312,22566
945.652,22801
946.993,22570
948.333,22608
949.672,22335
951.012,22407
952.351,22461
953.689,22328
955.028,22270
956.365,22169
957.703,22255
959.04,22262
960.377,22079
961.713,22008
963.049,21848
964.385,21873
965.721,21681
967.056,21785
968.39,21814
969.725,21781
971.059,21540
972.392,21396
973.725,21121
975.058,21009
976.391,20887
977.723,20907
979.055,20762
980.386,20558
981.718,20423
983.048,20727
984.379,20738
985.709,20388
987.039,20442
988.368,20315
989.697,20441
991.026,20179
992.354,19968
993.682,20113
995.009,20142
996.337,20047
997.664,19846
998.99,19872
1000.32,19664
1001.64,19679
1002.97,19740
1004.29,19627
1005.62,19546
1006.94,19444
1008.27,19464
1009.59,19395
1010.91,19201
1012.24,19246
1013.56,19331
1014.88,19267
1016.2,19158
1017.52,18957
1018.85,19147
1020.17,19042
1021.49,18951
1022.81,19115
1024.13,18950
1025.45,18891
1026.77,18931
1028.09,18980
1029.4,19411
1030.72,19253
1032.04,19748
1033.36,19605
1034.67,19528
1035.99,19184
1037.31,19181
1038.62,18929
1039.94,19034
1041.25,18903
1042.57,18819
1043.88,19057
1045.2,19107
1046.51,18924
1047.83,18684
1049.14,18753
1050.45,18956
1051.76,18883
1053.08,18987
1054.39,18882
1055.7,18776
1057.01,19095
1058.32,19289
1059.63,19239
1060.94,19253
1062.25,19116
1063.56,19001
1064.87,19080
1066.18,19115
1067.49,19162
1068.8,19350
1070.1,19203
1071.41,19336
1072.72,19526
1074.02,19306
1075.33,19562
1076.64,19670
1077.94,19656
1079.25,19431
1080.55,19584
1081.86,19685
1083.16,19884
1084.47,19684
1085.77,19846
1087.07,19572
1088.37,19813
1089.68,19961
1090.98,20126
1092.28,20141
1093.58,20041
1094.88,20109
1096.18,20158
1097.49,20335
1098.79,20073
1100.09,20342
1101.38,20396
1102.68,20306
1103.98,20467
1105.28,20750
1106.58,20643
1107.88,20623
1109.17,20558
1110.47,20784
1111.77,20868
1113.06,20904
1114.36,21079
1115.66,21015
1116.95,21179
1118.25,21424
1119.54,21468
1120.83,21750
1122.13,22000
1123.42,22299
1124.72,22857
1126.01,23367
1127.3,24253
1128.59,25138
1129.89,26157
1131.18,27400
1132.47,28746
1133.76,30211
1135.05,31034
1136.34,31142
1137.63,29995
1138.92,28727
1140.21,27408
1141.5,26847
1142.79,26585
1144.07,26415
1145.36,26463
1146.65,26758
1147.94,26929
1149.22,27376
1150.51,27559
1151.8,27673
1153.08,27642
1154.37,27683
1155.65,27599
1156.94,27504
1158.22,27554
1159.5,27310
1160.79,26637
1162.07,26478
1163.36,26097
1164.64,25590
1165.92,25097
1167.2,24261
1168.48,23946
1169.77,23409
1171.05,22811
1172.33,22603
1173.61,22247
1174.89,22110
1176.17,22012
1177.45,21869
1178.73,21511
1180,21367
1181.28,21076
1182.56,21344
1183.84,21285
1185.12,21285
1186.39,21327
1187.67,21440
1188.95,21606
1190.22,21860
1191.5,22272
1192.77,22642
1194.05,23272
1195.32,24038
1196.6,25036
1197.87,26211
1199.14,27398
1200.42,28044
1201.69,27350
1202.96,25375
1204.24,23590
1205.51,22152
1206.78,21496
1208.05,20640
1209.32,20466
1210.59,20293
1211.86,19965
1213.13,19960
1214.4,19956
1215.67,19739
1216.94,19753
1218.21,19768
1219.48,19647
1220.75,19489
1222.01,19425
1223.28,19486
1224.55,19576
1225.81,19484
1227.08,19466
1228.35,19476
1229.61,19301
1230.88,19564
1232.14,19563
1233.41,19544
1234.67,19487
1235.94,19631
1237.2,19680
1238.46,20224
1239.73,20350
1240.99,20368
1242.25,19996
1243.51,20003
1244.77,19903
1246.04,19497
1247.3,19646
1248.56,19498
1249.82,19531
1251.08,19457
1252.34,19558
1253.6,19395
1254.86,19608
1256.12,19554
1257.37,19536
1258.63,19612
1259.89,19659
1261.15,19839
1262.4,19764
1263.66,19800
1264.92,20124
1266.17,19899
1267.43,19800
1268.68,19659
1269.94,19610
1271.19,19585
1272.45,19349
1273.7,19415
1274.96,19502
1276.21,19552
1277.46,19543
1278.72,19613
1279.97,19556
1281.22,19724
1282.47,19684
1283.72,19674
1284.98,19809
1286.23,20060
1287.48,20203
1288.73,20116
1289.98,20180
1291.23,20120
1292.48,20254
1293.72,20232
1294.97,20355
1296.22,20893
1297.47,20962
1298.72,21257
1299.96,21439
1301.21,21695
1302.46,21522
1303.7,21384
1304.95,21168
1306.2,21226
1307.44,21193
1308.69,21104
1309.93,21437
1311.17,21498
1312.42,21404
1313.66,21346
1314.91,21490
1316.15,21548
1317.39,21435
1318.63,21398
1319.88,21342
1321.12,21473
1322.36,21664
1323.6,21671
1324.84,21752
1326.08,21668
1327.32,21749
1328.56,22055
1329.8,22016
1331.04,22216
1332.28,22399
1333.52,22559
1334.76,22717
1335.99,22654
1337.23,22741
1338.47,22961
1339.7,22966
1340.94,23016
1342.18,23024
1343.41,23198
1344.65,23174
1345.88,23348
1347.12,23466
1348.35,23649
1349.59,23420
1350.82,24112
1352.06,24201
1353.29,24469
1354.52,25155
1355.76,25662
1356.99,26097
1358.22,27049
1359.45,27842
1360.68,29128
1361.91,30756
1363.14,32937
1364.38,35491
1365.61,38461
1366.84,40159
1368.06,39217
1369.29,36899
1370.52,35397
1371.75,34310
1372.98,34277
1374.21,33512
1375.43,32789
1376.66,32212
1377.89,31636
1379.12,31324
1380.34,30594
1381.57,30193
1382.79,29703
1384.02,28957
1385.24,28460
1386.47,27809
1387.69,27114
1388.92,26608
1390.14,26318
1391.36,25814
1392.59,25278
1393.81,24918
1395.03,24704
1396.26,24180
1397.48,23823
1398.7,23395
1399.92,23304
1401.14,22972
1402.36,22619
1403.58,22404
1404.8,22287
1406.02,22097
1407.24,22212
1408.46,22163
1409.68,21983
1410.9,22136
1412.11,21941
1413.33,21867
1414.55,21979
1415.77,21782
1416.98,21970
1418.2,22165
1419.42,22339
1420.63,22732
1421.85,23891
1423.06,26258
1424.28,27345
1425.49,25520
1426.71,23505
1427.92,22800
1429.13,22460
1430.35,22415
1431.56,22187
1432.77,22006
1433.99,22112
1435.2,22000
1436.41,21958
1437.62,21872
1438.83,21865
1440.04,21427
1441.25,21243
1442.46,20924
1443.67,20562
1444.88,20528
1446.09,20739
1447.3,20761
1448.51,22220
1449.72,25675
1450.93,23072
1452.13,21712
1453.34,20976
1454.55,20297
1455.75,19921
1456.96,19769
1458.17,19727
1459.37,19545
1460.58,19682
1461.78,19962
1462.99,20223
1464.19,20405
1465.4,20430
1466.6,19829
1467.81,19425
1469.01,19361
1470.21,19295
1471.41,19094
1472.62,19151
1473.82,18977
1475.02,19118
1476.22,19080
1477.42,19154
1478.62,19226
1479.82,19440
1481.02,19709
1482.22,19927
1483.42,20047
1484.62,20374
1485.82,25633
1487.02,26469
1488.22,22746
1489.42,21793
1490.62,21670
1491.81,21768
1493.01,21932
1494.21,22408
1495.4,23247
1496.6,23876
1497.79,24882
1498.99,26228
1500.19,27153
1501.38,28603
1502.58,29883
1503.77,31213
1504.96,31873
1506.16,32637
1507.35,32691
1508.54,32761
1509.74,32176
1510.93,31175
1512.12,30775
1513.31,29952
1514.5,29507
1515.7,28903
1516.89,28735
1518.08,28339
1519.27,27647
1520.46,27355
1521.65,27161
1522.84,26973
1524.03,26550
1525.22,26091
1526.4,25394
1527.59,25276
1528.78,24943
1529.97,24684
1531.15,24674
1532.34,23993
1533.53,22644
1534.71,21524
1535.9,20851
1537.09,20239
1538.27,19656
1539.46,19219
1540.64,18908
1541.83,18487
1543.01,18280
1544.19,17991
1545.38,17738
1546.56,17645
1547.74,17449
1548.93,17200
1550.11,16958
1551.29,16905
1552.47,16618
1553.65,16745
1554.84,16576
1556.02,16520
1557.2,16430
1558.38,16395
1559.56,16204
1560.74,15970
1561.92,16006
1563.1,15970
1564.27,15955
1565.45,15816
1566.63,15823
1567.81,15756
1568.99,15748
1570.16,15879
1571.34,15661
1572.52,15848
1573.69,15744
1574.87,15776
1576.04,15843
1577.22,15738
1578.4,15760
1579.57,15778
1580.74,15422
1581.92,15399
1583.09,15478
1584.27,15275
1585.44,15238
1586.61,15064
1587.79,14856
1588.96,15152
1590.13,15000
1591.3,15079
1592.47,14983
1593.64,14918
1594.81,14921
1595.99,14904
1597.16,14996
1598.33,14916
1599.5,15113
1600.66,14996
1601.83,15159
1603,15092
1604.17,15133
1605.34,15282
1606.51,15227
1607.67,15291
1608.84,15302
1610.01,15161
1611.18,15020
1612.34,14999
1613.51,14636
1614.67,14558
1615.84,14657
1617,14591
1618.17,14587
1619.33,14466
1620.5,14468
1621.66,14357
1622.83,14214
1623.99,14188
1625.15,14224
1626.32,14304
1627.48,14151
1628.64,14114
1629.8,14104
1630.96,14069
1632.13,14100
1633.29,14186
1634.45,14244
1635.61,14025
1636.77,14134
1637.93,14128
1639.09,13992
1640.25,14000
1641.4,13966
1642.56,13771
1643.72,13892
1644.88,13963
1646.04,13754
1647.2,13823
1648.35,13849
1649.51,14010
1650.67,13922
1651.82,13838
1652.98,13980
1654.13,13859
1655.29,13950
1656.44,13906
1657.6,13773
1658.75,13973
1659.91,14027
1661.06,14121
1662.21,13996
1663.37,13827
1664.52,14131
1665.67,14034
1666.83,14068
1667.98,14078
1669.13,14250
1670.28,14326
1671.43,14397
1672.58,14680
1673.73,14954
1674.89,14958
1676.04,15209
1677.18,15542
1678.33,15857
1679.48,16451
1680.63,17288
1681.78,18492
1682.93,19841
1684.08,22008
1685.23,24315
1686.37,23231
1687.52,19269
1688.67,18266
1689.81,19061
1690.96,18894
1692.11,18418
1693.25,17323
1694.4,16594
1695.54,15690
1696.69,15309
1697.83,15049
1698.97,14677
1700.12,14455
1701.26,14167
1702.41,13884
1703.55,13821
1704.69,13676
1705.83,13770
1706.98,13440
1708.12,13566
1709.26,13320
1710.4,13314
1711.54,13216
1712.68,13166
1713.82,13088
1714.96,13120
1716.1,13028
1717.24,12857
1718.38,12830
1719.52,12865
1720.66,12566
1721.8,12761
1722.94,12550
1724.07,12782
1725.21,12602
1726.35,12618
1727.49,12706
1728.62,12601
1729.76,12497
1730.89,12478
1732.03,12451
1733.17,12463
1734.3,12607
1735.44,12433
1736.57,12491
1737.7,12474
1738.84,12484
1739.97,12361
1741.11,12456
1742.24,12351
1743.37,12410
1744.5,12284
1745.64,12208
1746.77,12377
1747.9,12364
1749.03,12416
1750.16,12148
1751.29,12344
1752.42,12303
1753.56,12324
1754.69,12256
1755.81,12424
1756.94,12214
1758.07,12312
1759.2,12253
1760.33,12284
1761.46,12469
1762.59,12418
1763.71,12605
1764.84,12570
1765.97,12662
1767.1,12788
1768.22,13006
1769.35,13595
1770.48,14669
1771.6,15345
1772.73,15390
1773.85,14907
1774.98,13906
1776.1,13248
1777.23,13112
1778.35,12712
1779.47,12568
1780.6,12487
1781.72,12388
1782.84,12421
1783.96,12358
1785.09,12209
1786.21,12042
1787.33,12179
1788.45,12130
1789.57,12064
1790.69,12212
1791.81,12190
1792.93,12046
1794.05,12005
1795.17,12048
1796.29,11961
1797.41,12160
1798.53,12090
1799.65,12135
1800.77,12156
1801.89,11944
1803,11987
1804.12,12017
1805.24,12117
1806.36,12129
1807.47,12009
1808.59,12019
1809.71,11987
1810.82,12011
1811.94,12161
1813.05,12098
1814.17,12038
1815.28,12068
1816.4,11839
1817.51,11814
1818.62,11849
1819.74,11921
1820.85,11910
1821.96,11893
1823.08,11920
1824.19,11935
1825.3,11929
1826.41,12023
1827.52,11896
1828.63,11926
1829.75,11967
1830.86,12006
1831.97,11965
1833.08,11943
1834.19,11925
1835.3,12016
1836.4,11864
1837.51,11948
1838.62,11867
1839.73,11906
1840.84,11900
1841.95,11834
1843.05,12056
1844.16,11903
1845.27,11983
1846.38,11926
1847.48,12031
1848.59,12038
1849.69,11921
1850.8,11871
1851.91,12088
1853.01,12061
1854.11,12023
1855.22,11907
1856.32,11903
1857.43,11902
1858.53,11871
1859.63,11811
1860.74,11835
1861.84,11609
1862.94,11822
1864.05,11863
1865.15,11878
1866.25,11774
1867.35,11835
1868.45,11866
1869.55,11879
1870.65,12060
1871.75,11984
1872.85,11979
1873.95,11963
1875.05,11956
1876.15,11822
1877.25,12026
1878.35,11845
1879.45,11909
1880.55,11948
1881.64,11861
1882.74,12083
1883.84,11943
1884.94,12005
1886.03,12129
1887.13,11961
1888.22,12038
1889.32,11998
1890.42,12085
1891.51,12013
1892.61,12021
1893.7,12071
1894.8,11985
1895.89,12128
1896.98,12118
1898.08,12018
1899.17,12077
1900.26,12067
1901.36,11974
1902.45,12016
1903.54,12032
1904.63,12152
1905.73,12122
1906.82,12104
1907.91,12099
1909,12257
1910.09,12129
1911.18,12163
1912.27,12130
1913.36,12195
1914.45,12334
1915.54,12143
1916.63,12274
1917.72,12263
1918.8,12342
1919.89,12334
1920.98,12472
1922.07,12210
1923.16,12380
1924.24,12274
1925.33,12321
1926.42,12362
1927.5,12310
1928.59,12307
1929.67,12439
1930.76,12291
1931.84,12360
1932.93,12534
1934.01,12568
1935.1,12927
1936.18,12947
1937.27,12955
1938.35,12982
1939.43,12679
1940.52,12742
1941.6,12677
1942.68,12625
1943.76,12523
1944.84,12520
1945.93,12555
1947.01,12507
1948.09,12620
1949.17,12415
1950.25,12630
1951.33,12467
1952.41,12572
1953.49,12453
1954.57,12598
1955.65,12467
1956.73,12459
1957.81,12545
1958.88,12528
1959.96,12438
1961.04,12547
1962.12,12432
1963.19,12561
1964.27,12482
1965.35,12486
1966.43,12640
1967.5,12533
1968.58,12681
1969.65,12512
1970.73,12733
1971.8,12612
1972.88,12798
1973.95,12692
1975.03,12729
1976.1,12810
1977.17,12688
1978.25,12775
1979.32,12780
1980.39,12839
1981.47,12835
1982.54,12919
1983.61,12912
1984.68,12770
1985.75,12879
1986.83,12828
1987.9,12828
1988.97,12779
1990.04,12736
1991.11,12880
1992.18,12968
1993.25,12884
1994.32,13002
1995.39,12917
1996.46,12985
1997.52,12902
1998.59,12848
1999.66,12937
2000.73,12947
2001.8,12987
2002.86,13069
2003.93,12921
2005,13071
2006.06,13141
2007.13,13141
2008.2,13157
2009.26,13211
2010.33,13324
2011.39,13259
2012.46,13276
2013.52,13198
2014.59,13346
2015.65,13238
2016.71,13388
2017.78,13098
2018.84,13207
2019.9,13280
2020.97,13349
2022.03,13263
2023.09,13317
2024.15,13431
2025.21,13323
2026.28,13245
2027.34,13372
2028.4,13270
2029.46,13553
2030.52,13390
2031.58,13362
2032.64,13522
2033.7,13556
2034.76,13584