File: example raman data/GM1_Fiber005.V2_Blue_140umx1.34um_40x_18sec.csv
340.52,65535
342.025,65535
343.528,65535
345.032,65535
346.535,65535
348.038,65535
349.54,65535
351.042,65535
352.543,65535
354.044,65535
355.545,65535
357.045,65535
358.545,65535
360.044,65535
361.543,65535
363.041,65535
364.539,65535
366.037,65535
367.534,65535
369.031,65535
370.528,65535
372.024,65535
373.519,65535
375.015,65535
376.509,65535
378.004,65535
379.498,65535
380.991,65535
382.485,65535
383.977,65535
385.47,65535
386.962,65535
388.453,65535
389.944,65535
391.435,65535
392.925,65535
394.415,65535
395.905,65535
397.394,65535
398.882,65535
400.371,65317
401.858,65535
403.346,65535
404.833,65535
406.319,65535
407.806,65535
409.291,65535
410.777,65535
412.262,65535
413.746,65535
415.231,65535
416.714,65535
418.198,65535
419.681,65535
421.163,65535
422.645,65535
424.127,65533
425.608,65508
427.089,65535
428.57,65535
430.05,65535
431.53,65128
433.009,65077
434.488,65198
435.966,65535
437.444,65524
438.922,65163
440.399,64785
441.876,64167
443.353,64519
444.829,64487
446.304,64970
447.78,65402
449.254,64793
450.729,64659
452.203,64556
453.677,64661
455.15,64706
456.623,64393
458.095,63966
459.567,64620
461.039,64625
462.51,64847
463.981,65270
465.451,64821
466.921,64712
468.391,64938
469.86,65061
471.329,65026
472.797,64509
474.265,64858
475.733,65029
477.2,64064
478.667,63944
480.133,63976
481.599,63717
483.065,63713
484.53,64109
485.995,64245
487.459,63985
488.923,64647
490.387,64757
491.85,64816
493.313,64744
494.775,64709
496.237,64477
497.699,64710
499.16,64769
500.621,65168
502.081,64944
503.541,65114
505.001,65202
506.46,65431
507.919,65232
509.377,65454
510.835,64945
512.293,65181
513.75,64932
515.207,64768
516.663,64536
518.119,64137
519.575,64307
521.03,63916
522.485,63809
523.939,63419
525.393,64469
526.847,63922
528.3,64239
529.753,63353
531.205,63647
532.657,63941
534.109,64502
535.56,64143
537.011,64473
538.462,64033
539.912,63303
541.361,63059
542.811,63524
544.26,63916
545.708,64221
547.156,64612
548.604,64811
550.051,64281
551.498,64808
552.945,65116
554.391,64881
555.837,64696
557.282,64625
558.727,65175
560.171,65289
561.616,65268
563.059,65243
564.503,65287
565.946,64776
567.388,64660
568.831,64420
570.272,64548
571.714,64635
573.155,64146
574.595,63940
576.036,63597
577.476,64717
578.915,65509
580.354,64852
581.793,64781
583.231,64230
584.669,64348
586.106,64302
587.544,64300
588.98,64717
590.417,64509
591.853,64207
593.288,63729
594.723,63444
596.158,63930
597.592,64200
599.026,63848
600.46,63780
601.893,64419
603.326,64413
604.758,63807
606.19,64431
607.622,64039
609.053,64142
610.484,63574
611.915,63610
613.345,63972
614.775,64432
616.204,64671
617.633,64230
619.061,63943
620.49,64162
621.917,63645
623.345,64197
624.772,63883
626.198,63042
627.625,63661
629.05,63295
630.476,63256
631.901,63333
633.326,63079
634.75,62616
636.174,62698
637.597,62844
639.021,62921
640.443,62577
641.866,62685
643.288,63898
644.709,63889
646.13,63870
647.551,64229
648.972,64824
650.392,64089
651.811,62957
653.231,63119
654.65,63300
656.068,63231
657.486,63717
658.904,63755
660.321,63453
661.738,64036
663.155,63925
664.571,62949
665.987,63327
667.403,62848
668.818,62396
670.232,62088
671.647,62344
673.061,62447
674.474,62337
675.887,62779
677.3,62529
678.712,62786
680.124,62628
681.536,63033
682.947,61779
684.358,61568
685.769,61787
687.179,62045
688.588,63272
689.998,62708
691.407,62919
692.815,62620
694.224,63059
695.631,62683
697.039,62508
698.446,62023
699.853,62210
701.259,61614
702.665,61511
704.07,61477
705.475,61980
706.88,61654
708.285,61182
709.689,61665
711.092,60956
712.496,60952
713.898,60965
715.301,60461
716.703,60638
718.105,60738
719.506,60812
720.907,60823
722.308,61230
723.708,61075
725.108,61568
726.507,61011
727.907,61156
729.305,60609
730.704,61143
732.102,61427
733.499,61160
734.896,61427
736.293,60734
737.69,59658
739.086,60596
740.482,60417
741.877,60196
743.272,60216
744.666,59983
746.061,60909
747.454,61492
748.848,60586
750.241,60313
751.634,60277
753.026,59990
754.418,60224
755.81,60063
757.201,60625
758.592,61354
759.982,60988
761.372,60979
762.762,59791
764.151,59644
765.54,59938
766.929,59531
768.317,59759
769.705,59408
771.092,60124
772.479,60469
773.866,60143
775.253,60019
776.639,59261
778.024,59901
779.409,60214
780.794,60273
782.179,60443
783.563,61449
784.947,61684
786.33,60942
787.713,60060
789.096,59683
790.478,60281
791.86,59791
793.241,59096
794.622,59581
796.003,59351
797.384,59312
798.764,59475
800.143,59772
801.523,59702
802.902,58509
804.28,58619
805.658,58721
807.036,58752
808.414,58902
809.791,59273
811.167,59327
812.544,58506
813.92,57950
815.295,57767
816.67,57884
818.045,58744
819.42,58709
820.794,58328
822.168,58567
823.541,58237
824.914,58573
826.287,58912
827.659,58790
829.031,59578
830.402,59200
831.774,58928
833.144,58750
834.515,58677
835.885,58784
837.255,59252
838.624,59113
839.993,59073
841.362,58926
842.73,58646
844.098,58827
845.465,58596
846.832,58449
848.199,58703
849.565,58486
850.931,57942
852.297,57603
853.662,57905
855.027,58288
856.392,58255
857.756,58382
859.12,57588
860.484,57154
861.847,57536
863.209,57778
864.572,57578
865.934,57911
867.295,57837
868.657,57649
870.018,57664
871.378,57992
872.738,58176
874.098,57606
875.458,57447
876.817,57517
878.176,57429
879.534,57602
880.892,57482
882.25,57678
883.607,57638
884.964,57501
886.32,57226
887.677,57283
889.033,57518
890.388,57107
891.743,57427
893.098,56988
894.452,56859
895.806,56845
897.16,57045
898.513,56402
899.866,56800
901.219,57462
902.571,56996
903.923,57146
905.274,57467
906.626,57511
907.976,57307
909.327,56667
910.677,56193
912.027,56028
913.376,56565
914.725,56694
916.074,56607
917.422,56909
918.77,57372
920.117,56507
921.464,56696
922.811,56684
924.158,57101
925.504,57452
926.85,57525
928.195,57519
929.54,58260
930.885,57886
932.229,57372
933.573,57737
934.916,57789
936.26,58223
937.603,57839
938.945,57968
940.287,57767
941.629,57853
942.971,57545
944.312,57551
945.652,57603
946.993,57849
948.333,57486
949.672,56653
951.012,56733
952.351,56578
953.689,56452
955.028,56632
956.365,56815
957.703,57101
959.04,56270
960.377,56021
961.713,56340
963.049,56248
964.385,55728
965.721,55318
967.056,55363
968.39,55565
969.725,55747
971.059,55609
972.392,55676
973.725,55720
975.058,56069
976.391,55884
977.723,56167
979.055,55435
980.386,55195
981.718,55341
983.048,55424
984.379,55406
985.709,54721
987.039,54292
988.368,54745
989.697,55694
991.026,54891
992.354,54711
993.682,54713
995.009,54921
996.337,54917
997.664,54626
998.99,54886
1000.32,53987
1001.64,55178
1002.97,55500
1004.29,55816
1005.62,55699
1006.94,55666
1008.27,55352
1009.59,55599
1010.91,55418
1012.24,55104
1013.56,55180
1014.88,55366
1016.2,55210
1017.52,55312
1018.85,55104
1020.17,55186
1021.49,54991
1022.81,54671
1024.13,55113
1025.45,54705
1026.77,55159
1028.09,55091
1029.4,55160
1030.72,55462
1032.04,55288
1033.36,54728
1034.67,55349
1035.99,55464
1037.31,55142
1038.62,55370
1039.94,54954
1041.25,54810
1042.57,54991
1043.88,55045
1045.2,55347
1046.51,55395
1047.83,55285
1049.14,54770
1050.45,54699
1051.76,54455
1053.08,54621
1054.39,54848
1055.7,55422
1057.01,55143
1058.32,55371
1059.63,55611
1060.94,55733
1062.25,55372
1063.56,56032
1064.87,55024
1066.18,55437
1067.49,55760
1068.8,56352
1070.1,56028
1071.41,55924
1072.72,56415
1074.02,55892
1075.33,55688
1076.64,55083
1077.94,55223
1079.25,55127
1080.55,54197
1081.86,54207
1083.16,54393
1084.47,54505
1085.77,54346
1087.07,54138
1088.37,53839
1089.68,53592
1090.98,53141
1092.28,53041
1093.58,53146
1094.88,53184
1096.18,52981
1097.49,53100
1098.79,52888
1100.09,53133
1101.38,52798
1102.68,52736
1103.98,52604
1105.28,52455
1106.58,52590
1107.88,53113
1109.17,52963
1110.47,53209
1111.77,52919
1113.06,52621
1114.36,52869
1115.66,52822
1116.95,52911
1118.25,52305
1119.54,52447
1120.83,52304
1122.13,52834
1123.42,52365
1124.72,52918
1126.01,52533
1127.3,52986
1128.59,53093
1129.89,52801
1131.18,52508
1132.47,52322
1133.76,51927
1135.05,51807
1136.34,52108
1137.63,52254
1138.92,51994
1140.21,51760
1141.5,52203
1142.79,51980
1144.07,52324
1145.36,52248
1146.65,52529
1147.94,51820
1149.22,51531
1150.51,51911
1151.8,51536
1153.08,51401
1154.37,51781
1155.65,51487
1156.94,51808
1158.22,51450
1159.5,51413
1160.79,51239
1162.07,51003
1163.36,50975
1164.64,51100
1165.92,50955
1167.2,50756
1168.48,51217
1169.77,49984
1171.05,50297
1172.33,49902
1173.61,50157
1174.89,49919
1176.17,50130
1177.45,50274
1178.73,50507
1180,50505
1181.28,50159
1182.56,50377
1183.84,49979
1185.12,50382
1186.39,50290
1187.67,50450
1188.95,51044
1190.22,50286
1191.5,50230
1192.77,50069
1194.05,50656
1195.32,50274
1196.6,49885
1197.87,49764
1199.14,49939
1200.42,49761
1201.69,49482
1202.96,49279
1204.24,48955
1205.51,49277
1206.78,48748
1208.05,48677
1209.32,49188
1210.59,48368
1211.86,48293
1213.13,48056
1214.4,48153
1215.67,48304
1216.94,48204
1218.21,47853
1219.48,48169
1220.75,48027
1222.01,47928
1223.28,48225
1224.55,48043
1225.81,47831
1227.08,48177
1228.35,48029
1229.61,48013
1230.88,48096
1232.14,48393
1233.41,47860
1234.67,47206
1235.94,47453
1237.2,47457
1238.46,47712
1239.73,47591
1240.99,47426
1242.25,47433
1243.51,47641
1244.77,47845
1246.04,47462
1247.3,47928
1248.56,47844
1249.82,47338
1251.08,47311
1252.34,47392
1253.6,47863
1254.86,48032
1256.12,47920
1257.37,48153
1258.63,48378
1259.89,48359
1261.15,47905
1262.4,48136
1263.66,48144
1264.92,48388
1266.17,47965
1267.43,47273
1268.68,47169
1269.94,46429
1271.19,45597
1272.45,45608
1273.7,46227
1274.96,46937
1276.21,46395
1277.46,46338
1278.72,46314
1279.97,46264
1281.22,45739
1282.47,45603
1283.72,45807
1284.98,45786
1286.23,46334
1287.48,45827
1288.73,45797
1289.98,46113
1291.23,46043
1292.48,46108
1293.72,46245
1294.97,46103
1296.22,46538
1297.47,46118
1298.72,46298
1299.96,45893
1301.21,46298
1302.46,46944
1303.7,45910
1304.95,45643
1306.2,45456
1307.44,45421
1308.69,44769
1309.93,45014
1311.17,44886
1312.42,44576
1313.66,44674
1314.91,44441
1316.15,44432
1317.39,44729
1318.63,44590
1319.88,44418
1321.12,44517
1322.36,44604
1323.6,44535
1324.84,44673
1326.08,44209
1327.32,43741
1328.56,43727
1329.8,44136
1331.04,43797
1332.28,44259
1333.52,43997
1334.76,43628
1335.99,43810
1337.23,43708
1338.47,43613
1339.7,43247
1340.94,43004
1342.18,43210
1343.41,43885
1344.65,43545
1345.88,42965
1347.12,42925
1348.35,42685
1349.59,42643
1350.82,42429
1352.06,42452
1353.29,42611
1354.52,42551
1355.76,41544
1356.99,41444
1358.22,41635
1359.45,41680
1360.68,41372
1361.91,41398
1363.14,41058
1364.38,41006
1365.61,40986
1366.84,41152
1368.06,41542
1369.29,41458
1370.52,41756
1371.75,41313
1372.98,41029
1374.21,40855
1375.43,40616
1376.66,40803
1377.89,40386
1379.12,40946
1380.34,40728
1381.57,40432
1382.79,40561
1384.02,40006
1385.24,39860
1386.47,40077
1387.69,40227
1388.92,40097
1390.14,39565
1391.36,39343
1392.59,39401
1393.81,39189
1395.03,39477
1396.26,38815
1397.48,38941
1398.7,38741
1399.92,38707
1401.14,38404
1402.36,38535
1403.58,38706
1404.8,39095
1406.02,38784
1407.24,38031
1408.46,37813
1409.68,38285
1410.9,38223
1412.11,37971
1413.33,37904
1414.55,37535
1415.77,37530
1416.98,37384
1418.2,36863
1419.42,36704
1420.63,36358
1421.85,36631
1423.06,36274
1424.28,36369
1425.49,36875
1426.71,36417
1427.92,36051
1429.13,35892
1430.35,35771
1431.56,35838
1432.77,35695
1433.99,35648
1435.2,35978
1436.41,35634
1437.62,35000
1438.83,35417
1440.04,35160
1441.25,35011
1442.46,34929
1443.67,34764
1444.88,34457
1446.09,34019
1447.3,34393
1448.51,34089
1449.72,34191
1450.93,34038
1452.13,33817
1453.34,34075
1454.55,33926
1455.75,33740
1456.96,33689
1458.17,33692
1459.37,33535
1460.58,33598
1461.78,32935
1462.99,33107
1464.19,33058
1465.4,32756
1466.6,32691
1467.81,32421
1469.01,32161
1470.21,32388
1471.41,32484
1472.62,32817
1473.82,32407
1475.02,31787
1476.22,31512
1477.42,31889
1478.62,31919
1479.82,31782
1481.02,31535
1482.22,30736
1483.42,30403
1484.62,30486
1485.82,30289
1487.02,30025
1488.22,30048
1489.42,29535
1490.62,29263
1491.81,29075
1493.01,29244
1494.21,29295
1495.4,29145
1496.6,29454
1497.79,29086
1498.99,28747
1500.19,28201
1501.38,28055
1502.58,27929
1503.77,27760
1504.96,28007
1506.16,27790
1507.35,27804
1508.54,28006
1509.74,28022
1510.93,27301
1512.12,27010
1513.31,26983
1514.5,26846
1515.7,26956
1516.89,26910
1518.08,26626
1519.27,26465
1520.46,26423
1521.65,26269
1522.84,26183
1524.03,26116
1525.22,25947
1526.4,25698
1527.59,25555
1528.78,25521
1529.97,25331
1531.15,25325
1532.34,24931
1533.53,24774
1534.71,24722
1535.9,24425
1537.09,24290
1538.27,23947
1539.46,23955
1540.64,24085
1541.83,24019
1543.01,23846
1544.19,23595
1545.38,23431
1546.56,23232
1547.74,23195
1548.93,23238
1550.11,22909
1551.29,23023
1552.47,23090
1553.65,22760
1554.84,22619
1556.02,22903
1557.2,22504
1558.38,21905
1559.56,21838
1560.74,21550
1561.92,21536
1563.1,21519
1564.27,21609
1565.45,21214
1566.63,20960
1567.81,20603
1568.99,20413
1570.16,20558
1571.34,20418
1572.52,20365
1573.69,20208
1574.87,19990
1576.04,20146
1577.22,19922
1578.4,20144
1579.57,19732
1580.74,19550
1581.92,19138
1583.09,18977
1584.27,18994
1585.44,18768
1586.61,18468
1587.79,18303
1588.96,18346
1590.13,18268
1591.3,18237
1592.47,18200
1593.64,17957
1594.81,17635
1595.99,17199
1597.16,17243
1598.33,17376
1599.5,17027
1600.66,17065
1601.83,16896
1603,16946
1604.17,16489
1605.34,16423
1606.51,16524
1607.67,16497
1608.84,16300
1610.01,16362
1611.18,16324
1612.34,16052
1613.51,15883
1614.67,15783
1615.84,15820
1617,15421
1618.17,15178
1619.33,15020
1620.5,15102
1621.66,15044
1622.83,14749
1623.99,14577
1625.15,14508
1626.32,14326
1627.48,14218
1628.64,14103
1629.8,14054
1630.96,13811
1632.13,13974
1633.29,13996
1634.45,13791
1635.61,13740
1636.77,13638
1637.93,13612
1639.09,13574
1640.25,13370
1641.4,13070
1642.56,12526
1643.72,12576
1644.88,12465
1646.04,12407
1647.2,12424
1648.35,12338
1649.51,12242
1650.67,12008
1651.82,11734
1652.98,11766
1654.13,11627
1655.29,11426
1656.44,11339
1657.6,11127
1658.75,11107
1659.91,11101
1661.06,11022
1662.21,10891
1663.37,10877
1664.52,10704
1665.67,10470
1666.83,10503
1667.98,10432
1669.13,10214
1670.28,10096
1671.43,10104
1672.58,10056
1673.73,10063
1674.89,9979
1676.04,10025
1677.18,10032
1678.33,9855
1679.48,9908
1680.63,9790
1681.78,9851
1682.93,9643
1684.08,9547
1685.23,9554
1686.37,9391
1687.52,9191
1688.67,9257
1689.81,9082
1690.96,9068
1692.11,8807
1693.25,8757
1694.4,8551
1695.54,8525
1696.69,8446
1697.83,8241
1698.97,8252
1700.12,8138
1701.26,7984
1702.41,7886
1703.55,7865
1704.69,7856
1705.83,7744
1706.98,7782
1708.12,7705
1709.26,7644
1710.4,7482
1711.54,7410
1712.68,7375
1713.82,7249
1714.96,7210
1716.1,7255
1717.24,6986
1718.38,6966
1719.52,7044
1720.66,6878
1721.8,6752
1722.94,6725
1724.07,6563
1725.21,6508
1726.35,6470
1727.49,6338
1728.62,6289
1729.76,6177
1730.89,6124
1732.03,6115
1733.17,6033
1734.3,6001
1735.44,5972
1736.57,6000
1737.7,5855
1738.84,5790
1739.97,5794
1741.11,5810
1742.24,5770
1743.37,5721
1744.5,5638
1745.64,5571
1746.77,5595
1747.9,5504
1749.03,5520
1750.16,5385
1751.29,5358
1752.42,5235
1753.56,5159
1754.69,5086
1755.81,4968
1756.94,4994
1758.07,4887
1759.2,4903
1760.33,4791
1761.46,4813
1762.59,4767
1763.71,4677
1764.84,4637
1765.97,4543
1767.1,4620
1768.22,4582
1769.35,4560
1770.48,4478
1771.6,4557
1772.73,4563
1773.85,4391
1774.98,4387
1776.1,4300
1777.23,4172
1778.35,4168
1779.47,4103
1780.6,4045
1781.72,4000
1782.84,4031
1783.96,3928
1785.09,3906
1786.21,3877
1787.33,3827
1788.45,3871
1789.57,3847
1790.69,3815
1791.81,3762
1792.93,3771
1794.05,3621
1795.17,3660
1796.29,3555
1797.41,3594
1798.53,3559
1799.65,3574
1800.77,3494
1801.89,3451
1803,3523
1804.12,3410
1805.24,3388
1806.36,3373
1807.47,3463
1808.59,3374
1809.71,3345
1810.82,3296
1811.94,3242
1813.05,3235
1814.17,3185
1815.28,3206
1816.4,3152
1817.51,3052
1818.62,3068
1819.74,3074
1820.85,3014
1821.96,2998
1823.08,3022
1824.19,2967
1825.3,2913
1826.41,2920
1827.52,2954
1828.63,2935
1829.75,2857
1830.86,2855
1831.97,2883
1833.08,2845
1834.19,2864
1835.3,2856
1836.4,2773
1837.51,2780
1838.62,2778
1839.73,2778
1840.84,2718
1841.95,2734
1843.05,2690
1844.16,2737
1845.27,2681
1846.38,2655
1847.48,2666
1848.59,2612
1849.69,2615
1850.8,2576
1851.91,2597
1853.01,2537
1854.11,2516
1855.22,2505
1856.32,2523
1857.43,2496
1858.53,2463
1859.63,2468
1860.74,2351
1861.84,2417
1862.94,2377
1864.05,2364
1865.15,2378
1866.25,2340
1867.35,2357
1868.45,2367
1869.55,2347
1870.65,2373
1871.75,2315
1872.85,2335
1873.95,2287
1875.05,2267
1876.15,2247
1877.25,2289
1878.35,2263
1879.45,2231
1880.55,2214
1881.64,2216
1882.74,2198
1883.84,2212
1884.94,2230
1886.03,2161
1887.13,2162
1888.22,2174
1889.32,2142
1890.42,2079
1891.51,2128
1892.61,2091
1893.7,2107
1894.8,2118
1895.89,2083
1896.98,2093
1898.08,2100
1899.17,2086
1900.26,2062
1901.36,2021
1902.45,2066
1903.54,2051
1904.63,2044
1905.73,2081
1906.82,2051
1907.91,2015
1909,1968
1910.09,2000
1911.18,2015
1912.27,1967
1913.36,1952
1914.45,1942
1915.54,1984
1916.63,1953
1917.72,1975
1918.8,1965
1919.89,1976
1920.98,1933
1922.07,1936
1923.16,2002
1924.24,1910
1925.33,1921
1926.42,1929
1927.5,1890
1928.59,1909
1929.67,1894
1930.76,1897
1931.84,1834
1932.93,1895
1934.01,1951
1935.1,1908
1936.18,1892
1937.27,1871
1938.35,1812
1939.43,1830
1940.52,1822
1941.6,1807
1942.68,1811
1943.76,1840
1944.84,1814
1945.93,1830
1947.01,1816
1948.09,1861
1949.17,1855
1950.25,1750
1951.33,1831
1952.41,1806
1953.49,1783
1954.57,1795
1955.65,1799
1956.73,1761
1957.81,1791
1958.88,1774
1959.96,1794
1961.04,1812
1962.12,1747
1963.19,1776
1964.27,1816
1965.35,1774
1966.43,1776
1967.5,1723
1968.58,1764
1969.65,1756
1970.73,1708
1971.8,1713
1972.88,1734
1973.95,1698
1975.03,1766
1976.1,1725
1977.17,1712
1978.25,1712
1979.32,1715
1980.39,1740
1981.47,1731
1982.54,1730
1983.61,1754
1984.68,1734
1985.75,1708
1986.83,1714
1987.9,1739
1988.97,1730
1990.04,1732
1991.11,1723
1992.18,1696
1993.25,1692
1994.32,1638
1995.39,1665
1996.46,1708
1997.52,1663
1998.59,1669
1999.66,1641
2000.73,1677
2001.8,1654
2002.86,1700
2003.93,1673
2005,1638
2006.06,1660
2007.13,1672
2008.2,1691
2009.26,1635
2010.33,1630
2011.39,1635
2012.46,1673
2013.52,1641
2014.59,1635
2015.65,1600
2016.71,1661
2017.78,1654
2018.84,1640
2019.9,1612
2020.97,1663
2022.03,1623
2023.09,1600
2024.15,1620
2025.21,1651
2026.28,1612
2027.34,1642
2028.4,1633
2029.46,1611
2030.52,1614
2031.58,1622
2032.64,1568
2033.7,1596
2034.76,1590