File: example raman data/GM1_Fiber007.V1_Clear_220umx1.25um_40x_300sec.csv
340.52,61934
342.025,61565
343.528,61997
345.032,61640
346.535,61721
348.038,61470
349.54,61799
351.042,61364
352.543,61173
354.044,61511
355.545,61307
357.045,61083
358.545,61225
360.044,61185
361.543,61197
363.041,61196
364.539,60869
366.037,60843
367.534,60877
369.031,61078
370.528,60887
372.024,60757
373.519,60755
375.015,61100
376.509,61055
378.004,60932
379.498,60868
380.991,61096
382.485,60874
383.977,60781
385.47,61396
386.962,61854
388.453,62260
389.944,63331
391.435,64063
392.925,62336
394.415,60597
395.905,59701
397.394,59984
398.882,59516
400.371,59549
401.858,59478
403.346,58941
404.833,59194
406.319,59042
407.806,59200
409.291,58940
410.777,58577
412.262,58789
413.746,58673
415.231,58291
416.714,58403
418.198,58804
419.681,58603
421.163,58119
422.645,57741
424.127,57843
425.608,57941
427.089,57873
428.57,58022
430.05,57762
431.53,57897
433.009,58087
434.488,57618
435.966,57495
437.444,57233
438.922,57204
440.399,57429
441.876,56795
443.353,56828
444.829,56655
446.304,56551
447.78,56481
449.254,56637
450.729,56649
452.203,56349
453.677,56509
455.15,56557
456.623,56355
458.095,56053
459.567,55970
461.039,56336
462.51,56262
463.981,55954
465.451,55844
466.921,56202
468.391,56350
469.86,55980
471.329,55808
472.797,56226
474.265,55970
475.733,56020
477.2,55454
478.667,55345
480.133,55132
481.599,55309
483.065,55049
484.53,55180
485.995,55597
487.459,55651
488.923,55608
490.387,55234
491.85,55297
493.313,54980
494.775,55279
496.237,54570
497.699,54708
499.16,54461
500.621,54466
502.081,54483
503.541,54402
505.001,54545
506.46,54353
507.919,54446
509.377,54348
510.835,54166
512.293,53971
513.75,54095
515.207,53998
516.663,53895
518.119,53525
519.575,53286
521.03,53188
522.485,53116
523.939,53126
525.393,53180
526.847,53164
528.3,52699
529.753,53138
531.205,52882
532.657,52736
534.109,52907
535.56,53067
537.011,53072
538.462,52703
539.912,52778
541.361,52414
542.811,52307
544.26,52288
545.708,52255
547.156,52245
548.604,52412
550.051,52421
551.498,52574
552.945,52477
554.391,52717
555.837,52300
557.282,51868
558.727,52132
560.171,52205
561.616,52435
563.059,52283
564.503,52785
565.946,52318
567.388,52195
568.831,52023
570.272,52067
571.714,52346
573.155,51951
574.595,52212
576.036,51908
577.476,51815
578.915,51956
580.354,52172
581.793,52349
583.231,51783
584.669,51916
586.106,51472
587.544,51569
588.98,51395
590.417,51505
591.853,51297
593.288,51251
594.723,51011
596.158,51272
597.592,51192
599.026,51196
600.46,51116
601.893,51117
603.326,51334
604.758,51707
606.19,51049
607.622,50740
609.053,50743
610.484,50643
611.915,50855
613.345,50607
614.775,50661
616.204,50565
617.633,50457
619.061,50328
620.49,50011
621.917,49768
623.345,49682
624.772,49748
626.198,49683
627.625,49662
629.05,49413
630.476,49628
631.901,49834
633.326,49349
634.75,49362
636.174,49193
637.597,49438
639.021,49247
640.443,49097
641.866,49017
643.288,49432
644.709,49298
646.13,49265
647.551,49451
648.972,49564
650.392,49221
651.811,48978
653.231,49116
654.65,48950
656.068,48828
657.486,49258
658.904,48953
660.321,48701
661.738,48771
663.155,48314
664.571,48501
665.987,48475
667.403,48570
668.818,48277
670.232,48197
671.647,47643
673.061,48000
674.474,47631
675.887,47862
677.3,47811
678.712,48011
680.124,47798
681.536,48063
682.947,47729
684.358,47383
685.769,47638
687.179,47560
688.588,47600
689.998,47287
691.407,47317
692.815,47337
694.224,47538
695.631,47552
697.039,47195
698.446,47232
699.853,47307
701.259,47150
702.665,47399
704.07,47261
705.475,47419
706.88,47605
708.285,47616
709.689,48659
711.092,49274
712.496,49799
713.898,50146
715.301,49981
716.703,48461
718.105,47445
719.506,47226
720.907,46600
722.308,46470
723.708,46241
725.108,46479
726.507,46340
727.907,45782
729.305,45824
730.704,46068
732.102,45803
733.499,45933
734.896,45967
736.293,45706
737.69,45814
739.086,45598
740.482,45765
741.877,45874
743.272,45594
744.666,45855
746.061,45829
747.454,46091
748.848,45795
750.241,46084
751.634,46719
753.026,46947
754.418,47039
755.81,46520
757.201,45717
758.592,45367
759.982,45135
761.372,44976
762.762,44730
764.151,44689
765.54,44871
766.929,44525
768.317,44383
769.705,44355
771.092,44588
772.479,44101
773.866,44097
775.253,44333
776.639,44042
778.024,44057
779.409,43609
780.794,43421
782.179,43343
783.563,43811
784.947,43648
786.33,43768
787.713,43473
789.096,43465
790.478,43132
791.86,43246
793.241,43386
794.622,43089
796.003,43380
797.384,43224
798.764,43023
800.143,42801
801.523,42749
802.902,42603
804.28,42710
805.658,42366
807.036,42494
808.414,42477
809.791,42313
811.167,42375
812.544,42279
813.92,42172
815.295,42098
816.67,42094
818.045,41922
819.42,42021
820.794,41874
822.168,41895
823.541,41819
824.914,41766
826.287,41660
827.659,41607
829.031,41635
830.402,41629
831.774,41542
833.144,41515
834.515,41339
835.885,41401
837.255,41521
838.624,41103
839.993,41455
841.362,40926
842.73,40960
844.098,41144
845.465,41208
846.832,41370
848.199,41110
849.565,41058
850.931,40759
852.297,40822
853.662,40599
855.027,40701
856.392,40718
857.756,40698
859.12,40825
860.484,40366
861.847,40616
863.209,40700
864.572,40420
865.934,40224
867.295,40368
868.657,40244
870.018,40234
871.378,40000
872.738,39771
874.098,39952
875.458,39955
876.817,39844
878.176,40032
879.534,39845
880.892,39551
882.25,39691
883.607,39225
884.964,39459
886.32,39351
887.677,39259
889.033,39171
890.388,39405
891.743,39327
893.098,39064
894.452,39102
895.806,38797
897.16,38599
898.513,38579
899.866,38882
901.219,39074
902.571,38496
903.923,38805
905.274,39023
906.626,38932
907.976,38986
909.327,38914
910.677,38811
912.027,38703
913.376,38758
914.725,38735
916.074,38569
917.422,38728
918.77,38567
920.117,38410
921.464,38375
922.811,38653
924.158,38953
925.504,38472
926.85,38528
928.195,38727
929.54,38713
930.885,38874
932.229,38576
933.573,38661
934.916,38365
936.26,38107
937.603,38498
938.945,38368
940.287,38367
941.629,38214
942.971,38339
944.312,38146
945.652,38178
946.993,38167
948.333,38128
949.672,38022
951.012,38272
952.351,38212
953.689,38326
955.028,38012
956.365,37926
957.703,37869
959.04,37818
960.377,37884
961.713,37687
963.049,37699
964.385,37598
965.721,37638
967.056,37712
968.39,38537
969.725,38641
971.059,37863
972.392,37482
973.725,37557
975.058,37405
976.391,37318
977.723,37514
979.055,37514
980.386,37345
981.718,37304
983.048,37460
984.379,37459
985.709,37347
987.039,37141
988.368,37198
989.697,37244
991.026,37172
992.354,37164
993.682,37198
995.009,37140
996.337,37207
997.664,36780
998.99,37056
1000.32,36910
1001.64,37075
1002.97,37484
1004.29,37233
1005.62,37237
1006.94,37311
1008.27,37243
1009.59,36866
1010.91,37002
1012.24,36519
1013.56,36609
1014.88,36234
1016.2,36126
1017.52,36025
1018.85,35995
1020.17,36043
1021.49,35823
1022.81,36083
1024.13,35914
1025.45,35868
1026.77,36288
1028.09,36326
1029.4,36284
1030.72,36020
1032.04,36529
1033.36,36248
1034.67,36209
1035.99,36107
1037.31,36019
1038.62,35917
1039.94,35555
1041.25,35881
1042.57,35728
1043.88,35734
1045.2,35594
1046.51,35674
1047.83,35472
1049.14,35344
1050.45,35426
1051.76,35302
1053.08,35249
1054.39,35246
1055.7,35113
1057.01,35097
1058.32,35359
1059.63,35268
1060.94,35294
1062.25,35169
1063.56,35225
1064.87,35198
1066.18,35116
1067.49,35173
1068.8,35057
1070.1,35107
1071.41,34960
1072.72,35002
1074.02,35017
1075.33,35372
1076.64,35144
1077.94,34995
1079.25,34966
1080.55,35048
1081.86,34829
1083.16,34841
1084.47,34889
1085.77,35115
1087.07,35027
1088.37,34842
1089.68,35386
1090.98,35507
1092.28,35664
1093.58,35937
1094.88,36145
1096.18,36886
1097.49,37367
1098.79,38143
1100.09,39449
1101.38,40619
1102.68,41652
1103.98,41867
1105.28,40813
1106.58,39315
1107.88,37818
1109.17,36425
1110.47,35778
1111.77,35158
1113.06,34572
1114.36,34507
1115.66,34563
1116.95,34329
1118.25,34442
1119.54,34145
1120.83,33957
1122.13,34018
1123.42,33847
1124.72,34064
1126.01,34435
1127.3,34367
1128.59,34407
1129.89,34459
1131.18,34621
1132.47,34597
1133.76,34362
1135.05,34325
1136.34,34528
1137.63,34341
1138.92,34053
1140.21,34160
1141.5,34029
1142.79,33796
1144.07,34106
1145.36,33972
1146.65,33757
1147.94,33688
1149.22,33826
1150.51,33884
1151.8,33545
1153.08,33467
1154.37,33504
1155.65,33611
1156.94,33371
1158.22,33309
1159.5,32951
1160.79,33132
1162.07,32973
1163.36,33071
1164.64,32983
1165.92,33313
1167.2,32759
1168.48,32464
1169.77,32651
1171.05,32598
1172.33,32735
1173.61,32751
1174.89,32429
1176.17,32547
1177.45,32865
1178.73,32715
1180,32423
1181.28,32358
1182.56,32367
1183.84,32263
1185.12,32352
1186.39,32332
1187.67,32501
1188.95,32511
1190.22,32324
1191.5,32615
1192.77,32495
1194.05,32704
1195.32,33156
1196.6,33217
1197.87,33421
1199.14,33794
1200.42,33932
1201.69,33567
1202.96,33187
1204.24,32793
1205.51,32184
1206.78,31654
1208.05,31209
1209.32,31327
1210.59,31028
1211.86,30812
1213.13,31056
1214.4,30988
1215.67,30751
1216.94,30707
1218.21,30620
1219.48,30763
1220.75,30616
1222.01,30576
1223.28,30639
1224.55,30616
1225.81,30371
1227.08,30375
1228.35,30212
1229.61,30143
1230.88,30242
1232.14,30463
1233.41,30447
1234.67,30053
1235.94,30227
1237.2,30250
1238.46,30075
1239.73,30195
1240.99,30183
1242.25,30192
1243.51,30094
1244.77,30018
1246.04,30104
1247.3,30054
1248.56,30166
1249.82,30139
1251.08,29721
1252.34,30116
1253.6,29738
1254.86,29899
1256.12,29713
1257.37,29676
1258.63,29944
1259.89,29846
1261.15,29716
1262.4,29852
1263.66,29787
1264.92,29957
1266.17,29866
1267.43,29920
1268.68,29964
1269.94,29847
1271.19,29728
1272.45,29738
1273.7,30047
1274.96,29798
1276.21,29561
1277.46,29407
1278.72,29694
1279.97,29535
1281.22,29468
1282.47,29526
1283.72,29642
1284.98,29549
1286.23,29331
1287.48,29423
1288.73,29423
1289.98,29371
1291.23,29472
1292.48,29210
1293.72,29425
1294.97,29340
1296.22,29625
1297.47,29648
1298.72,29672
1299.96,29773
1301.21,29717
1302.46,29816
1303.7,29935
1304.95,29417
1306.2,29361
1307.44,29327
1308.69,29399
1309.93,29367
1311.17,29431
1312.42,29254
1313.66,29302
1314.91,29210
1316.15,29066
1317.39,28940
1318.63,28978
1319.88,29041
1321.12,29140
1322.36,29076
1323.6,29159
1324.84,28820
1326.08,29044
1327.32,28710
1328.56,28952
1329.8,28990
1331.04,28768
1332.28,29081
1333.52,29003
1334.76,29006
1335.99,29068
1337.23,28929
1338.47,28968
1339.7,29019
1340.94,28852
1342.18,29067
1343.41,29017
1344.65,29448
1345.88,29177
1347.12,29339
1348.35,29292
1349.59,29217
1350.82,29503
1352.06,29443
1353.29,29485
1354.52,29375
1355.76,29140
1356.99,28803
1358.22,28535
1359.45,28493
1360.68,28343
1361.91,28190
1363.14,28084
1364.38,27770
1365.61,27749
1366.84,27795
1368.06,27729
1369.29,27728
1370.52,27613
1371.75,27789
1372.98,27602
1374.21,27391
1375.43,27277
1376.66,27454
1377.89,27125
1379.12,27604
1380.34,27054
1381.57,27108
1382.79,26787
1384.02,26691
1385.24,26358
1386.47,26192
1387.69,26025
1388.92,26137
1390.14,25771
1391.36,25654
1392.59,25547
1393.81,25524
1395.03,25278
1396.26,25135
1397.48,25061
1398.7,24932
1399.92,24868
1401.14,24779
1402.36,24809
1403.58,24795
1404.8,24503
1406.02,24504
1407.24,24595
1408.46,24436
1409.68,24631
1410.9,24557
1412.11,24419
1413.33,24072
1414.55,24322
1415.77,24029
1416.98,24141
1418.2,24071
1419.42,24183
1420.63,24304
1421.85,24592
1423.06,25300
1424.28,25549
1425.49,24963
1426.71,24474
1427.92,24094
1429.13,23676
1430.35,23723
1431.56,23600
1432.77,23588
1433.99,23452
1435.2,23673
1436.41,23323
1437.62,23345
1438.83,23437
1440.04,23419
1441.25,22935
1442.46,23136
1443.67,22697
1444.88,22700
1446.09,22610
1447.3,22620
1448.51,23307
1449.72,24326
1450.93,23474
1452.13,22857
1453.34,22498
1454.55,22336
1455.75,22166
1456.96,22239
1458.17,21980
1459.37,21722
1460.58,21670
1461.78,21703
1462.99,21861
1464.19,21727
1465.4,21436
1466.6,21366
1467.81,21145
1469.01,20915
1470.21,20714
1471.41,20783
1472.62,20952
1473.82,20504
1475.02,20637
1476.22,20667
1477.42,20388
1478.62,20342
1479.82,20435
1481.02,20421
1482.22,20330
1483.42,20311
1484.62,20044
1485.82,20007
1487.02,19863
1488.22,19760
1489.42,19780
1490.62,19646
1491.81,19498
1493.01,19528
1494.21,19495
1495.4,19262
1496.6,19347
1497.79,19143
1498.99,19232
1500.19,19276
1501.38,19254
1502.58,18884
1503.77,19144
1504.96,19047
1506.16,19400
1507.35,19264
1508.54,19518
1509.74,19512
1510.93,19671
1512.12,19461
1513.31,19473
1514.5,19327
1515.7,19240
1516.89,19057
1518.08,18727
1519.27,18289
1520.46,18262
1521.65,17967
1522.84,17906
1524.03,17836
1525.22,17576
1526.4,17602
1527.59,17497
1528.78,17527
1529.97,17438
1531.15,17735
1532.34,17450
1533.53,17287
1534.71,17030
1535.9,17016
1537.09,16803
1538.27,16534
1539.46,16519
1540.64,16313
1541.83,16510
1543.01,16181
1544.19,16056
1545.38,16115
1546.56,16195
1547.74,15999
1548.93,15802
1550.11,15951
1551.29,15771
1552.47,15571
1553.65,15302
1554.84,15283
1556.02,15266
1557.2,15132
1558.38,15263
1559.56,15009
1560.74,14731
1561.92,14668
1563.1,14698
1564.27,14539
1565.45,14494
1566.63,14430
1567.81,14320
1568.99,14249
1570.16,14216
1571.34,14190
1572.52,14102
1573.69,14092
1574.87,14111
1576.04,14056
1577.22,13988
1578.4,13876
1579.57,13803
1580.74,13712
1581.92,13462
1583.09,13519
1584.27,13443
1585.44,13250
1586.61,13217
1587.79,13147
1588.96,13105
1590.13,13004
1591.3,12954
1592.47,12863
1593.64,12710
1594.81,12774
1595.99,12598
1597.16,12742
1598.33,12637
1599.5,12568
1600.66,12428
1601.83,12404
1603,12413
1604.17,12388
1605.34,12306
1606.51,12335
1607.67,12222
1608.84,12100
1610.01,12048
1611.18,12160
1612.34,11915
1613.51,11865
1614.67,11650
1615.84,11724
1617,11594
1618.17,11456
1619.33,11523
1620.5,11412
1621.66,11396
1622.83,11161
1623.99,11175
1625.15,10980
1626.32,10920
1627.48,11058
1628.64,10759
1629.8,10940
1630.96,10759
1632.13,10672
1633.29,10728
1634.45,10685
1635.61,10622
1636.77,10468
1637.93,10343
1639.09,10551
1640.25,10239
1641.4,10257
1642.56,10160
1643.72,10112
1644.88,9992
1646.04,9891
1647.2,9935
1648.35,10036
1649.51,9852
1650.67,9831
1651.82,9780
1652.98,9645
1654.13,9595
1655.29,9599
1656.44,9544
1657.6,9454
1658.75,9380
1659.91,9418
1661.06,9357
1662.21,9369
1663.37,9295
1664.52,9247
1665.67,9169
1666.83,9198
1667.98,9191
1669.13,9193
1670.28,9091
1671.43,9085
1672.58,9310
1673.73,9330
1674.89,9319
1676.04,9299
1677.18,9370
1678.33,9372
1679.48,9595
1680.63,9855
1681.78,10251
1682.93,10709
1684.08,11297
1685.23,12032
1686.37,11673
1687.52,10351
1688.67,9877
1689.81,10228
1690.96,10131
1692.11,9964
1693.25,9520
1694.4,9317
1695.54,8887
1696.69,8831
1697.83,8795
1698.97,8655
1700.12,8607
1701.26,8519
1702.41,8323
1703.55,8245
1704.69,8134
1705.83,7984
1706.98,7959
1708.12,7820
1709.26,7742
1710.4,7758
1711.54,7679
1712.68,7606
1713.82,7541
1714.96,7427
1716.1,7350
1717.24,7403
1718.38,7410
1719.52,8955
1720.66,11519
1721.8,7464
1722.94,7199
1724.07,7079
1725.21,7095
1726.35,7062
1727.49,6973
1728.62,6943
1729.76,6904
1730.89,6897
1732.03,6931
1733.17,6963
1734.3,6850
1735.44,6744
1736.57,6784
1737.7,6807
1738.84,6764
1739.97,6728
1741.11,6684
1742.24,6645
1743.37,6660
1744.5,6560
1745.64,6616
1746.77,6635
1747.9,6462
1749.03,6497
1750.16,6407
1751.29,6414
1752.42,6369
1753.56,6321
1754.69,6364
1755.81,6306
1756.94,6323
1758.07,6295
1759.2,6260
1760.33,6269
1761.46,6224
1762.59,6165
1763.71,6074
1764.84,6142
1765.97,6147
1767.1,6277
1768.22,6367
1769.35,7887
1770.48,10623
1771.6,7303
1772.73,6987
1773.85,6876
1774.98,6494
1776.1,6281
1777.23,6146
1778.35,6128
1779.47,5985
1780.6,5950
1781.72,5851
1782.84,5895
1783.96,5835
1785.09,5870
1786.21,5741
1787.33,5676
1788.45,5718
1789.57,5675
1790.69,5683
1791.81,5709
1792.93,5622
1794.05,5457
1795.17,5655
1796.29,5664
1797.41,5668
1798.53,5612
1799.65,5684
1800.77,5516
1801.89,5551
1803,5527
1804.12,5499
1805.24,5527
1806.36,5499
1807.47,5486
1808.59,5481
1809.71,5511
1810.82,5443
1811.94,5441
1813.05,5410
1814.17,5407
1815.28,5346
1816.4,5297
1817.51,5358
1818.62,5319
1819.74,5274
1820.85,5320
1821.96,5346
1823.08,5257
1824.19,5327
1825.3,5360
1826.41,5330
1827.52,5291
1828.63,5269
1829.75,5276
1830.86,5306
1831.97,5226
1833.08,5253
1834.19,5214
1835.3,5188
1836.4,5242
1837.51,5158
1838.62,5187
1839.73,5189
1840.84,5179
1841.95,5179
1843.05,5170
1844.16,5037
1845.27,5159
1846.38,5132
1847.48,5171
1848.59,5100
1849.69,5165
1850.8,5111
1851.91,5104
1853.01,5071
1854.11,5116
1855.22,5129
1856.32,5134
1857.43,5077
1858.53,4932
1859.63,5101
1860.74,4964
1861.84,5009
1862.94,5088
1864.05,6845
1865.15,5163
1866.25,4997
1867.35,4959
1868.45,5014
1869.55,4925
1870.65,5043
1871.75,5080
1872.85,5035
1873.95,4984
1875.05,4945
1876.15,4905
1877.25,5022
1878.35,4923
1879.45,4995
1880.55,4957
1881.64,4975
1882.74,5026
1883.84,4970
1884.94,4975
1886.03,4966
1887.13,4901
1888.22,5011
1889.32,4972
1890.42,4947
1891.51,4930
1892.61,4937
1893.7,4894
1894.8,4944
1895.89,4910
1896.98,4923
1898.08,4941
1899.17,4977
1900.26,4898
1901.36,4844
1902.45,4942
1903.54,5053
1904.63,4977
1905.73,4974
1906.82,4894
1907.91,4945
1909,4919
1910.09,4908
1911.18,5017
1912.27,4952
1913.36,4874
1914.45,4990
1915.54,4892
1916.63,4998
1917.72,4972
1918.8,4985
1919.89,4950
1920.98,4988
1922.07,4878
1923.16,4999
1924.24,4932
1925.33,5006
1926.42,4959
1927.5,4936
1928.59,4900
1929.67,4915
1930.76,5007
1931.84,5036
1932.93,4982
1934.01,5018
1935.1,5098
1936.18,5081
1937.27,5150
1938.35,5088
1939.43,5119
1940.52,5057
1941.6,5029
1942.68,5085
1943.76,5028
1944.84,4954
1945.93,5110
1947.01,4931
1948.09,4950
1949.17,4995
1950.25,4992
1951.33,5042
1952.41,5090
1953.49,5023
1954.57,4995
1955.65,5016
1956.73,5031
1957.81,4984
1958.88,4953
1959.96,4896
1961.04,4979
1962.12,5069
1963.19,4923
1964.27,4925
1965.35,4938
1966.43,5074
1967.5,4992
1968.58,4946
1969.65,5030
1970.73,4954
1971.8,4977
1972.88,5009
1973.95,5029
1975.03,5079
1976.1,5019
1977.17,5031
1978.25,4994
1979.32,5045
1980.39,4978
1981.47,5039
1982.54,5022
1983.61,5101
1984.68,5149
1985.75,5016
1986.83,5107
1987.9,5040
1988.97,5146
1990.04,5015
1991.11,5099
1992.18,5095
1993.25,5056
1994.32,5095
1995.39,5162
1996.46,5142
1997.52,5095
1998.59,5119
1999.66,5115
2000.73,5139
2001.8,5108
2002.86,5078
2003.93,5126
2005,5153
2006.06,5137
2007.13,5102
2008.2,5155
2009.26,5112
2010.33,5145
2011.39,5141
2012.46,5171
2013.52,5313
2014.59,5223
2015.65,5084
2016.71,5119
2017.78,5156
2018.84,5123
2019.9,5111
2020.97,5134
2022.03,5255
2023.09,5168
2024.15,5175
2025.21,5138
2026.28,5183
2027.34,5213
2028.4,5247
2029.46,5259
2030.52,5246
2031.58,5315
2032.64,5284
2033.7,5258
2034.76,5315