File: example raman data/GM4-Fiber001.v3-Black-5.5umx0.75um_3sec.csv
269.58,55697
271.101,55991
272.622,55884
274.142,56038
275.662,55519
277.181,55759
278.7,55553
280.219,55509
281.737,55339
283.254,55431
284.772,55158
286.288,55530
287.805,55436
289.321,55348
290.837,55489
292.352,55109
293.866,55378
295.381,55179
296.895,55488
298.408,55481
299.921,54772
301.434,55187
302.946,55218
304.458,55325
305.969,55246
307.48,55227
308.991,55152
310.501,55430
312.011,55247
313.52,55179
315.029,55480
316.538,55510
318.046,55457
319.553,55268
321.061,55324
322.567,55195
324.074,55466
325.58,55385
327.085,55495
328.591,55230
330.095,55446
331.6,55442
333.104,55241
334.607,55502
336.11,55412
337.613,55331
339.115,55339
340.617,55210
342.118,55137
343.619,55182
345.12,55015
346.62,55206
348.12,54891
349.619,54859
351.118,54986
352.617,54782
354.115,54930
355.612,54857
357.11,54902
358.607,54327
360.103,54608
361.599,54652
363.095,54391
364.59,54515
366.085,54347
367.579,54617
369.073,54612
370.567,54499
372.06,54661
373.553,54565
375.045,54510
376.537,54421
378.028,54761
379.52,54616
381.01,54637
382.5,54252
383.99,54520
385.48,54400
386.969,54479
388.458,54251
389.946,54508
391.434,54201
392.921,54249
394.408,54248
395.895,54292
397.381,54296
398.867,54414
400.352,54205
401.837,54532
403.321,54488
404.806,54530
406.289,54422
407.773,54281
409.256,53930
410.738,54135
412.22,54243
413.702,53925
415.183,54123
416.664,54160
418.145,53933
419.625,54089
421.104,53976
422.584,53589
424.062,53899
425.541,53822
427.019,53832
428.496,53649
429.974,53902
431.451,53412
432.927,53598
434.403,53617
435.879,53659
437.354,53720
438.829,53683
440.303,53295
441.777,53625
443.251,53368
444.724,53279
446.196,53474
447.669,53397
449.141,53093
450.612,53010
452.083,53698
453.554,53443
455.025,53503
456.495,53324
457.964,53344
459.433,53258
460.902,53304
462.37,53476
463.838,53156
465.306,53376
466.773,53256
468.24,53180
469.706,53305
471.172,53513
472.637,53229
474.102,53817
475.567,53725
477.031,54340
478.495,54580
479.959,54913
481.422,54908
482.885,55757
484.347,56038
485.809,56980
487.27,57263
488.732,57632
490.192,57701
491.653,56972
493.113,56655
494.572,56167
496.031,55478
497.49,55158
498.948,54442
500.406,53963
501.864,53702
503.321,53303
504.777,53492
506.234,53249
507.69,53333
509.145,53163
510.6,53444
512.055,53011
513.509,52974
514.963,52751
516.417,52552
517.87,52531
519.323,52352
520.775,52076
522.227,52365
523.679,52225
525.13,51998
526.58,52062
528.031,51989
529.481,51745
530.93,51860
532.379,51841
533.828,51917
535.277,51772
536.725,51443
538.172,51287
539.619,51569
541.066,51761
542.513,51797
543.959,51638
545.404,51698
546.849,51247
548.294,51588
549.739,51451
551.183,51514
552.626,51809
554.07,51351
555.512,51227
556.955,51298
558.397,51295
559.839,51317
561.28,51409
562.721,51080
564.161,51463
565.601,51300
567.041,51173
568.48,51204
569.919,51451
571.358,51103
572.796,51123
574.234,51111
575.671,50951
577.108,50965
578.545,51148
579.981,51154
581.417,50697
582.852,50836
584.287,50377
585.722,50556
587.156,50795
588.59,50646
590.023,50509
591.456,50653
592.889,50329
594.321,50489
595.753,50522
597.185,50355
598.616,50474
600.046,50713
601.477,50710
602.907,50740
604.336,50295
605.765,50633
607.194,50510
608.623,50752
610.051,50469
611.478,50192
612.905,50224
614.332,50131
615.759,50333
617.185,49936
618.61,50176
620.036,49855
621.461,50062
622.885,49958
624.309,49938
625.733,49706
627.156,49813
628.579,49727
630.002,49727
631.424,49452
632.846,50040
634.267,49758
635.688,49598
637.109,49613
638.529,49689
639.949,49610
641.369,49479
642.788,49895
644.206,49350
645.625,49504
647.043,49422
648.46,49517
649.877,49293
651.294,49400
652.711,49318
654.127,49261
655.542,49325
656.958,49002
658.372,48892
659.787,49161
661.201,48865
662.615,49071
664.028,48515
665.441,48684
666.854,48742
668.266,48703
669.678,48718
671.089,48491
672.5,48728
673.911,48503
675.321,48341
676.731,48302
678.14,48259
679.55,48506
680.958,48112
682.367,47961
683.775,48314
685.182,47931
686.589,48166
687.996,47835
689.403,47705
690.809,48015
692.215,47712
693.62,47655
695.025,47784
696.429,47865
697.834,47609
699.237,47711
700.641,47446
702.044,47537
703.446,47335
704.849,47602
706.251,47256
707.652,47292
709.053,47431
710.454,46926
711.854,47042
713.254,47013
714.654,47090
716.053,47014
717.452,46623
718.851,46654
720.249,46748
721.647,46596
723.044,46931
724.441,46581
725.837,46482
727.234,46587
728.63,46255
730.025,46673
731.42,46452
732.815,46316
734.209,46084
735.603,46015
736.997,45974
738.39,45856
739.783,45979
741.175,46105
742.567,46136
743.959,45727
745.35,45964
746.741,45901
748.132,45779
749.522,45837
750.912,45956
752.301,45902
753.69,45649
755.079,45603
756.468,45556
757.855,45699
759.243,45670
760.63,45603
762.017,45492
763.404,45474
764.79,45383
766.175,45441
767.561,45514
768.946,45452
770.33,45118
771.714,44889
773.098,45255
774.482,45374
775.865,45313
777.248,45288
778.63,45233
780.012,45073
781.394,44628
782.775,44533
784.156,44930
785.536,45022
786.916,44701
788.296,44691
789.675,44633
791.054,44276
792.433,44818
793.811,44495
795.189,44040
796.567,44258
797.944,44473
799.321,44359
800.697,44313
802.073,44273
803.449,44027
804.824,43897
806.199,44026
807.574,43845
808.948,43634
810.322,43967
811.695,43487
813.068,43455
814.441,43849
815.813,43962
817.185,43646
818.557,43429
819.928,43501
821.299,43592
822.67,43469
824.04,43658
825.409,43625
826.779,43621
828.148,43526
829.517,43315
830.885,43251
832.253,43360
833.62,43498
834.988,43291
836.354,43458
837.721,43342
839.087,43111
840.453,43010
841.818,43487
843.183,43045
844.548,43307
845.912,43432
847.276,43454
848.639,43384
850.002,42878
851.365,42894
852.728,43191
854.09,42916
855.451,43072
856.813,42923
858.174,42860
859.534,42872
860.895,42912
862.254,42898
863.614,42979
864.973,42773
866.332,42969
867.69,42943
869.048,43120
870.406,43011
871.763,42884
873.12,42739
874.477,42952
875.833,42905
877.189,42775
878.545,42853
879.9,42648
881.255,42791
882.609,42786
883.963,42875
885.317,42565
886.67,42825
888.023,42597
889.376,42656
890.728,42670
892.08,42589
893.431,42610
894.782,42446
896.133,42621
897.484,42797
898.834,42478
900.183,42571
901.533,42517
902.882,42472
904.23,42571
905.579,42548
906.927,42899
908.274,42522
909.621,42385
910.968,42438
912.315,42447
913.661,42332
915.006,42223
916.352,42057
917.697,42025
919.042,42193
920.386,41838
921.73,41989
923.073,41711
924.417,41951
925.76,41870
927.102,41774
928.444,41792
929.786,41539
931.127,41362
932.469,41540
933.809,41493
935.15,41774
936.49,41635
937.829,41623
939.169,41595
940.508,41657
941.846,41557
943.184,41042
944.522,41249
945.86,41165
947.197,41079
948.534,41144
949.87,40884
951.206,40969
952.542,40837
953.877,40797
955.212,40407
956.547,40877
957.881,40859
959.215,40685
960.549,40566
961.882,40692
963.215,40666
964.547,40733
965.879,40669
967.211,40530
968.543,40496
969.874,40670
971.205,40536
972.535,40449
973.865,40505
975.195,40462
976.524,40525
977.853,40486
979.182,40525
980.51,40486
981.838,40360
983.165,39917
984.493,40384
985.819,40322
987.146,40340
988.472,40205
989.798,40405
991.123,40154
992.448,40093
993.773,40279
995.097,40219
996.421,40132
997.745,40158
999.068,40071
1000.39,40152
1001.71,40061
1003.04,40263
1004.36,40122
1005.68,40174
1007,40605
1008.32,40181
1009.64,40156
1010.96,40717
1012.28,40281
1013.6,39966
1014.92,40150
1016.24,39972
1017.56,39932
1018.88,39936
1020.19,39720
1021.51,39753
1022.83,39695
1024.14,39748
1025.46,39622
1026.78,39483
1028.09,39451
1029.41,39368
1030.72,39562
1032.04,39456
1033.35,39562
1034.67,39442
1035.98,39347
1037.29,39185
1038.6,39372
1039.92,38994
1041.23,39296
1042.54,39367
1043.85,39220
1045.16,39136
1046.47,39199
1047.78,38919
1049.09,38938
1050.4,38774
1051.71,39038
1053.02,38851
1054.33,38766
1055.64,38645
1056.95,38585
1058.26,38877
1059.56,38617
1060.87,38559
1062.18,38488
1063.48,38859
1064.79,38577
1066.09,38568
1067.4,38735
1068.7,38409
1070.01,38530
1071.31,38225
1072.62,38517
1073.92,38176
1075.22,38305
1076.53,38131
1077.83,38094
1079.13,38218
1080.43,38422
1081.73,38438
1083.03,38189
1084.33,38226
1085.63,38381
1086.93,38387
1088.23,38185
1089.53,38181
1090.83,38087
1092.13,38095
1093.43,38216
1094.73,38004
1096.03,38223
1097.32,38221
1098.62,37928
1099.92,38053
1101.21,38000
1102.51,37755
1103.8,37735
1105.1,38021
1106.39,37868
1107.69,37685
1108.98,37832
1110.28,37845
1111.57,37779
1112.86,37576
1114.16,38037
1115.45,37762
1116.74,38128
1118.03,38228
1119.32,38121
1120.61,38365
1121.91,38224
1123.2,38737
1124.49,38947
1125.78,39122
1127.06,39207
1128.35,39099
1129.64,39221
1130.93,39047
1132.22,39070
1133.51,39027
1134.79,39040
1136.08,39147
1137.37,39229
1138.65,39027
1139.94,38804
1141.23,38831
1142.51,38800
1143.8,38614
1145.08,38621
1146.36,38467
1147.65,38336
1148.93,38299
1150.22,38538
1151.5,38541
1152.78,38677
1154.06,38708
1155.34,39081
1156.63,38888
1157.91,38937
1159.19,38675
1160.47,38398
1161.75,38121
1163.03,37626
1164.31,37239
1165.59,36929
1166.87,36750
1168.15,36088
1169.42,36205
1170.7,36056
1171.98,35997
1173.26,36252
1174.53,36340
1175.81,36154
1177.09,36734
1178.36,36667
1179.64,37035
1180.91,37054
1182.19,37097
1183.46,37003
1184.74,36635
1186.01,36711
1187.28,36592
1188.56,36734
1189.83,36501
1191.1,36664
1192.37,36620
1193.65,36441
1194.92,36215
1196.19,36340
1197.46,35997
1198.73,36002
1200,36086
1201.27,35887
1202.54,35788
1203.81,35564
1205.08,35410
1206.35,35366
1207.61,35770
1208.88,35248
1210.15,35489
1211.42,35491
1212.68,35598
1213.95,35520
1215.22,35645
1216.48,35667
1217.75,35542
1219.01,35365
1220.28,35425
1221.54,35034
1222.81,34838
1224.07,35025
1225.33,34654
1226.6,34518
1227.86,34480
1229.12,34146
1230.38,33906
1231.64,34070
1232.91,33838
1234.17,33917
1235.43,34067
1236.69,33788
1237.95,33678
1239.21,33928
1240.47,33685
1241.73,33388
1242.99,33545
1244.25,33467
1245.5,33569
1246.76,33654
1248.02,33472
1249.28,33187
1250.53,33190
1251.79,33201
1253.05,33180
1254.3,32890
1255.56,33127
1256.81,32916
1258.07,33009
1259.32,32878
1260.58,32970
1261.83,32764
1263.08,32856
1264.34,32768
1265.59,32801
1266.84,32748
1268.09,32841
1269.35,32826
1270.6,33260
1271.85,33118
1273.1,33073
1274.35,33407
1275.6,33320
1276.85,33714
1278.1,33837
1279.35,33927
1280.6,33901
1281.85,34322
1283.1,34012
1284.34,34142
1285.59,34094
1286.84,33952
1288.09,34131
1289.33,33650
1290.58,33488
1291.82,32912
1293.07,32701
1294.32,32463
1295.56,32273
1296.81,32006
1298.05,31804
1299.29,31636
1300.54,31438
1301.78,31021
1303.02,31062
1304.27,30832
1305.51,30707
1306.75,30780
1307.99,30812
1309.24,30725
1310.48,30424
1311.72,30206
1312.96,30229
1314.2,30441
1315.44,30091
1316.68,30022
1317.92,30093
1319.16,30112
1320.39,29804
1321.63,29800
1322.87,29576
1324.11,29571
1325.35,29496
1326.58,29432
1327.82,29321
1329.06,29176
1330.29,29228
1331.53,29280
1332.76,29076
1334,28919
1335.23,29047
1336.47,29170
1337.7,29435
1338.93,29217
1340.17,29418
1341.4,29281
1342.63,29407
1343.87,29040
1345.1,29167
1346.33,28960
1347.56,28969
1348.79,28792
1350.02,28767
1351.25,28520
1352.48,28234
1353.71,28127
1354.94,28211
1356.17,28244
1357.4,27755
1358.63,27770
1359.86,27683
1361.09,27480
1362.31,27314
1363.54,27390
1364.77,27190
1365.99,26940
1367.22,26827
1368.45,26674
1369.67,26734
1370.9,26551
1372.12,26428
1373.35,26116
1374.57,26023
1375.8,25719
1377.02,25789
1378.24,25571
1379.47,25525
1380.69,25344
1381.91,25129
1383.13,24967
1384.36,25048
1385.58,24713
1386.8,24781
1388.02,24760
1389.24,24378
1390.46,24335
1391.68,24135
1392.9,24119
1394.12,23987
1395.34,23801
1396.56,23671
1397.78,23583
1398.99,23577
1400.21,23412
1401.43,23187
1402.65,23299
1403.86,23199
1405.08,23119
1406.3,23120
1407.51,23190
1408.73,23148
1409.94,23037
1411.16,22939
1412.37,22950
1413.59,22920
1414.8,22815
1416.01,22553
1417.23,22377
1418.44,22341
1419.65,22145
1420.87,22004
1422.08,21764
1423.29,21600
1424.5,21657
1425.71,21362
1426.92,21283
1428.13,21159
1429.34,21350
1430.55,21141
1431.76,20866
1432.97,20650
1434.18,20778
1435.39,20437
1436.6,20278
1437.81,20223
1439.01,19875
1440.22,19700
1441.43,19746
1442.63,19397
1443.84,19469
1445.05,19366
1446.25,19237
1447.46,19108
1448.66,18888
1449.87,18742
1451.07,18769
1452.28,18602
1453.48,18462
1454.68,18272
1455.89,18320
1457.09,18206
1458.29,18022
1459.5,18092
1460.7,17821
1461.9,17929
1463.1,17659
1464.3,17627
1465.5,17447
1466.7,17389
1467.9,17397
1469.1,17150
1470.3,17155
1471.5,16978
1472.7,16928
1473.9,16711
1475.1,16803
1476.3,16514
1477.49,16733
1478.69,16501
1479.89,16397
1481.09,16251
1482.28,16120
1483.48,16211
1484.67,15866
1485.87,15839
1487.06,15512
1488.26,15522
1489.45,15569
1490.65,15399
1491.84,15402
1493.04,15611
1494.23,15453
1495.42,15334
1496.62,15151
1497.81,15009
1499,14908
1500.19,14873
1501.38,14682
1502.57,14622
1503.77,14423
1504.96,14229
1506.15,14209
1507.34,14112
1508.53,14104
1509.71,13851
1510.9,13894
1512.09,13766
1513.28,13696
1514.47,13503
1515.66,13575
1516.84,13300
1518.03,13146
1519.22,13006
1520.41,12979
1521.59,12799
1522.78,12791
1523.96,12702
1525.15,12673
1526.33,12521
1527.52,12431
1528.7,12338
1529.89,12395
1531.07,12309
1532.25,12195
1533.44,11992
1534.62,11856
1535.8,11952
1536.99,11715
1538.17,11715
1539.35,11507
1540.53,11410
1541.71,11268
1542.89,11313
1544.07,11088
1545.25,11136
1546.43,11123
1547.61,10990
1548.79,10944
1549.97,10878
1551.15,10839
1552.33,10780
1553.51,10631
1554.68,10458
1555.86,10526
1557.04,10651
1558.21,10422
1559.39,10267
1560.57,10134
1561.74,10171
1562.92,10010
1564.09,9953
1565.27,10033
1566.44,9778
1567.62,9945
1568.79,9856
1569.97,9924
1571.14,9779
1572.31,9597
1573.49,9758
1574.66,9726
1575.83,9647
1577,9542
1578.17,9402
1579.35,9353
1580.52,9321
1581.69,9246
1582.86,9207
1584.03,9136
1585.2,9079
1586.37,9021
1587.54,8985
1588.71,8933
1589.88,8803
1591.04,8662
1592.21,8741
1593.38,8406
1594.55,8493
1595.71,8214
1596.88,8022
1598.05,7915
1599.21,7841
1600.38,7807
1601.55,7633
1602.71,7669
1603.88,7574
1605.04,7358
1606.2,7330
1607.37,7230
1608.53,7107
1609.7,7118
1610.86,7043
1612.02,7003
1613.19,6972
1614.35,6876
1615.51,6819
1616.67,6755
1617.83,6665
1618.99,6612
1620.16,6587
1621.32,6432
1622.48,6372
1623.64,6249
1624.8,6290
1625.96,6126
1627.11,6057
1628.27,6142
1629.43,5964
1630.59,5904
1631.75,5756
1632.91,5806
1634.06,5811
1635.22,5778
1636.38,5607
1637.53,5664
1638.69,5511
1639.84,5504
1641,5492
1642.16,5388
1643.31,5355
1644.47,5286
1645.62,5227
1646.77,5151
1647.93,5090
1649.08,5034
1650.23,5001
1651.39,4926
1652.54,4903
1653.69,4928
1654.84,4866
1656,4803
1657.15,4735
1658.3,4659
1659.45,4654
1660.6,4617
1661.75,4583
1662.9,4495
1664.05,4502
1665.2,4507
1666.35,4423
1667.5,4447
1668.64,4292
1669.79,4284
1670.94,4260
1672.09,4239
1673.24,4231
1674.38,4152
1675.53,4134
1676.68,4118
1677.82,4046
1678.97,4001
1680.11,3978
1681.26,3934
1682.4,3908
1683.55,3888
1684.69,3762
1685.84,3775
1686.98,3762
1688.12,3707
1689.27,3614
1690.41,3672
1691.55,3615
1692.69,3533
1693.84,3502
1694.98,3520
1696.12,3480
1697.26,3424
1698.4,3371
1699.54,3370
1700.68,3344
1701.82,3323
1702.96,3270
1704.1,3224
1705.24,3238
1706.38,3259
1707.52,3231
1708.66,3163
1709.79,3115
1710.93,3106
1712.07,2998
1713.21,3103
1714.34,3054
1715.48,3001
1716.62,2963
1717.75,2964
1718.89,2940
1720.02,2978
1721.16,2930
1722.29,2810
1723.43,2813
1724.56,2757
1725.69,2810
1726.83,2762
1727.96,2675
1729.09,2743
1730.23,2699
1731.36,2687
1732.49,2644
1733.62,2672
1734.75,2635
1735.89,2654
1737.02,2623
1738.15,2591
1739.28,2562
1740.41,2550
1741.54,2557
1742.67,2554
1743.8,2480
1744.93,2489
1746.05,2454
1747.18,2418
1748.31,2358
1749.44,2405
1750.57,2370
1751.69,2352
1752.82,2329
1753.95,2294
1755.07,2292
1756.2,2289
1757.32,2312
1758.45,2274
1759.58,2282
1760.7,2260
1761.83,2241
1762.95,2228
1764.07,2187
1765.2,2215
1766.32,2168
1767.44,2153
1768.57,2168
1769.69,2147
1770.81,2166
1771.93,2098
1773.06,2064
1774.18,2097
1775.3,2066
1776.42,2029
1777.54,1993
1778.66,1998
1779.78,1990
1780.9,2006
1782.02,1973
1783.14,2048
1784.26,2019
1785.38,1965
1786.49,1970
1787.61,1943
1788.73,1942
1789.85,1979
1790.97,1957
1792.08,1925
1793.2,1911
1794.32,1868
1795.43,1856
1796.55,1866
1797.66,1884
1798.78,1876
1799.89,1844
1801.01,1798
1802.12,1782
1803.24,1825
1804.35,1799
1805.46,1833
1806.58,1819
1807.69,1808
1808.8,1831
1809.91,1796
1811.03,1797
1812.14,1788
1813.25,1772
1814.36,1721
1815.47,1754
1816.58,1725
1817.69,1736
1818.8,1725
1819.91,1736
1821.02,1676
1822.13,1731
1823.24,1699
1824.35,1697
1825.46,1662
1826.57,1652
1827.67,1638
1828.78,1663
1829.89,1638
1831,1622
1832.1,1671
1833.21,1624
1834.32,1638
1835.42,1626
1836.53,1611
1837.63,1587
1838.74,1577
1839.84,1581
1840.95,1584
1842.05,1567
1843.16,1606
1844.26,1550
1845.36,1583
1846.47,1588
1847.57,1599
1848.67,1588
1849.77,1560
1850.88,1563
1851.98,1546
1853.08,1560
1854.18,1567
1855.28,1536
1856.38,1548
1857.48,1504
1858.58,1507
1859.68,1538
1860.78,1497
1861.88,1539
1862.98,1534
1864.08,1495
1865.18,1494
1866.27,1504
1867.37,1502
1868.47,1447
1869.57,1514
1870.66,1510
1871.76,1467
1872.86,1446
1873.95,1449
1875.05,1479
1876.14,1475
1877.24,1478
1878.34,1504
1879.43,1461
1880.52,1463
1881.62,1479
1882.71,1462
1883.81,1469
1884.9,1458
1885.99,1467
1887.09,1454
1888.18,1451
1889.27,1433
1890.36,1393
1891.45,1454
1892.55,1433
1893.64,1440
1894.73,1455
1895.82,1427
1896.91,1406
1898,1409
1899.09,1452
1900.18,1426
1901.27,1398
1902.36,1407
1903.44,1429
1904.53,1442
1905.62,1410
1906.71,1410
1907.8,1420
1908.88,1412
1909.97,1422
1911.06,1420
1912.14,1385
1913.23,1380
1914.32,1395
1915.4,1385
1916.49,1375
1917.57,1382
1918.66,1364
1919.74,1368
1920.83,1355
1921.91,1372
1922.99,1339
1924.08,1386
1925.16,1348
1926.24,1364
1927.33,1381
1928.41,1367
1929.49,1413
1930.57,1394
1931.65,1351
1932.74,1343
1933.82,1396
1934.9,1338
1935.98,1381
1937.06,1347
1938.14,1336
1939.22,1345
1940.3,1355
1941.38,1386
1942.46,1362
1943.53,1361
1944.61,1364
1945.69,1315
1946.77,1348
1947.85,1378
1948.92,1356
1950,1322
1951.08,1327
1952.15,1311
1953.23,1345
1954.3,1336
1955.38,1317
1956.46,1346
1957.53,1343
1958.61,1339
1959.68,1299
1960.75,1349
1961.83,1317
1962.9,1326
1963.98,1320
1965.05,1314
1966.12,1314
1967.19,1307
1968.27,1296
1969.34,1306
1970.41,1289
1971.48,1334
1972.55,1316
1973.62,1311
1974.69,1344
1975.76,1314
1976.84,1267
1977.91,1287
1978.97,1318
1980.04,1299
1981.11,1322