File: example raman data/GM4-Fiber001.v2-Black-5.5umx0.75um_4sec.csv
269.58,59840
271.101,59215
272.622,59903
274.142,59442
275.662,59327
277.181,59326
278.7,59447
280.219,59424
281.737,59030
283.254,59188
284.772,59124
286.288,59227
287.805,59186
289.321,59172
290.837,59021
292.352,59063
293.866,58952
295.381,58824
296.895,58707
298.408,59077
299.921,58918
301.434,59176
302.946,58739
304.458,59013
305.969,58949
307.48,59031
308.991,58765
310.501,58615
312.011,59099
313.52,59127
315.029,58684
316.538,58944
318.046,59214
319.553,59002
321.061,58968
322.567,59130
324.074,59258
325.58,59012
327.085,58938
328.591,59199
330.095,59276
331.6,59288
333.104,59136
334.607,58929
336.11,59073
337.613,59081
339.115,59026
340.617,59327
342.118,58942
343.619,58751
345.12,58837
346.62,58882
348.12,58460
349.619,58660
351.118,58629
352.617,58733
354.115,58624
355.612,58804
357.11,58411
358.607,58469
360.103,58689
361.599,58255
363.095,58432
364.59,58534
366.085,58031
367.579,58307
369.073,58269
370.567,58631
372.06,58363
373.553,58428
375.045,58393
376.537,57895
378.028,58137
379.52,58193
381.01,58232
382.5,57981
383.99,58481
385.48,58039
386.969,58416
388.458,58048
389.946,58027
391.434,57701
392.921,58007
394.408,57888
395.895,57837
397.381,57944
398.867,57858
400.352,58123
401.837,57903
403.321,58059
404.806,57978
406.289,57962
407.773,57988
409.256,57585
410.738,58030
412.22,57828
413.702,57787
415.183,57652
416.664,57882
418.145,57973
419.625,57993
421.104,57662
422.584,57553
424.062,57624
425.541,57657
427.019,57744
428.496,57662
429.974,57473
431.451,57401
432.927,57448
434.403,57300
435.879,57251
437.354,57357
438.829,57199
440.303,56801
441.777,57028
443.251,57273
444.724,57291
446.196,57292
447.669,57036
449.141,57081
450.612,56939
452.083,57035
453.554,57102
455.025,56732
456.495,56861
457.964,57074
459.433,57020
460.902,56728
462.37,56789
463.838,56907
465.306,56964
466.773,56775
468.24,56772
469.706,57425
471.172,57124
472.637,57168
474.102,57218
475.567,57635
477.031,57767
478.495,58225
479.959,58241
481.422,58584
482.885,58810
484.347,59725
485.809,60171
487.27,60924
488.732,61166
490.192,61042
491.653,60308
493.113,60140
494.572,59158
496.031,59051
497.49,57867
498.948,57832
500.406,57611
501.864,57616
503.321,57703
504.777,57032
506.234,56651
507.69,56945
509.145,56679
510.6,56710
512.055,56783
513.509,56604
514.963,56159
516.417,56065
517.87,56316
519.323,56164
520.775,56178
522.227,55871
523.679,55860
525.13,55899
526.58,55684
528.031,55664
529.481,55457
530.93,55593
532.379,55693
533.828,55582
535.277,55478
536.725,55275
538.172,55269
539.619,55515
541.066,55169
542.513,55421
543.959,55391
545.404,55398
546.849,55256
548.294,55393
549.739,55140
551.183,55424
552.626,55213
554.07,55048
555.512,55069
556.955,55141
558.397,54904
559.839,55110
561.28,54923
562.721,54944
564.161,54885
565.601,55112
567.041,54817
568.48,54698
569.919,54873
571.358,54976
572.796,54746
574.234,54450
575.671,54825
577.108,54664
578.545,54867
579.981,54514
581.417,54516
582.852,54674
584.287,54401
585.722,54546
587.156,54541
588.59,54528
590.023,54233
591.456,54157
592.889,54372
594.321,54201
595.753,54341
597.185,54505
598.616,54252
600.046,54033
601.477,54099
602.907,54331
604.336,54070
605.765,54067
607.194,54240
608.623,54232
610.051,53855
611.478,54091
612.905,53989
614.332,53870
615.759,53796
617.185,53679
618.61,53605
620.036,53841
621.461,53727
622.885,53425
624.309,53576
625.733,53395
627.156,53352
628.579,53268
630.002,53184
631.424,53061
632.846,53508
634.267,53120
635.688,53314
637.109,53316
638.529,53125
639.949,53103
641.369,53555
642.788,53290
644.206,53085
645.625,52761
647.043,53229
648.46,53192
649.877,53127
651.294,52919
652.711,53081
654.127,52868
655.542,52447
656.958,52937
658.372,52942
659.787,52744
661.201,52269
662.615,52288
664.028,52537
665.441,52549
666.854,52332
668.266,52495
669.678,52307
671.089,52047
672.5,52176
673.911,52078
675.321,52135
676.731,52048
678.14,52033
679.55,51878
680.958,51876
682.367,51957
683.775,51808
685.182,51560
686.589,51585
687.996,51641
689.403,51327
690.809,51716
692.215,51044
693.62,51117
695.025,51340
696.429,51294
697.834,51093
699.237,51231
700.641,50973
702.044,51003
703.446,50916
704.849,51227
706.251,50507
707.652,50696
709.053,50691
710.454,50721
711.854,50415
713.254,50699
714.654,50582
716.053,50515
717.452,50071
718.851,50044
720.249,50249
721.647,49952
723.044,50101
724.441,50116
725.837,50249
727.234,49883
728.63,49710
730.025,50149
731.42,49670
732.815,49604
734.209,49601
735.603,49827
736.997,49561
738.39,49580
739.783,49699
741.175,49439
742.567,49046
743.959,49513
745.35,49517
746.741,49252
748.132,49442
749.522,49592
750.912,49071
752.301,49280
753.69,48969
755.079,48971
756.468,49335
757.855,48903
759.243,48757
760.63,49044
762.017,48601
763.404,48814
764.79,48847
766.175,48786
767.561,48613
768.946,48707
770.33,48770
771.714,48681
773.098,48545
774.482,48850
775.865,48402
777.248,48369
778.63,48461
780.012,48385
781.394,48229
782.775,48236
784.156,48282
785.536,48127
786.916,48273
788.296,48065
789.675,48007
791.054,47960
792.433,48025
793.811,48004
795.189,47770
796.567,47574
797.944,47849
799.321,47846
800.697,47268
802.073,47166
803.449,47275
804.824,47415
806.199,47225
807.574,47234
808.948,47371
810.322,47254
811.695,47104
813.068,47091
814.441,47109
815.813,46857
817.185,46766
818.557,46782
819.928,46610
821.299,46781
822.67,46856
824.04,46903
825.409,46701
826.779,47003
828.148,46545
829.517,46665
830.885,46488
832.253,46542
833.62,46423
834.988,46457
836.354,46520
837.721,46469
839.087,46309
840.453,46344
841.818,46534
843.183,46369
844.548,46399
845.912,46370
847.276,46332
848.639,46183
850.002,46296
851.365,45986
852.728,46282
854.09,46358
855.451,46179
856.813,46137
858.174,46318
859.534,46189
860.895,46077
862.254,46189
863.614,45764
864.973,45929
866.332,45959
867.69,46201
869.048,46027
870.406,46096
871.763,46060
873.12,46076
874.477,45944
875.833,46028
877.189,46108
878.545,45727
879.9,45825
881.255,45961
882.609,46018
883.963,45892
885.317,45780
886.67,45802
888.023,45555
889.376,45933
890.728,45845
892.08,45785
893.431,45825
894.782,45855
896.133,45827
897.484,45983
898.834,45841
900.183,45704
901.533,45637
902.882,46034
904.23,45471
905.579,45735
906.927,45416
908.274,45675
909.621,45452
910.968,45417
912.315,45692
913.661,45584
915.006,45046
916.352,45497
917.697,45240
919.042,44959
920.386,44859
921.73,44937
923.073,44864
924.417,44614
925.76,44819
927.102,44701
928.444,44907
929.786,44536
931.127,44538
932.469,44664
933.809,44526
935.15,44626
936.49,44487
937.829,44300
939.169,44447
940.508,44122
941.846,44065
943.184,44187
944.522,44088
945.86,43881
947.197,44021
948.534,44153
949.87,43871
951.206,43703
952.542,43266
953.877,43877
955.212,43665
956.547,43854
957.881,43657
959.215,43690
960.549,43544
961.882,43368
963.215,43568
964.547,43333
965.879,43337
967.211,43462
968.543,43514
969.874,43286
971.205,43213
972.535,42859
973.865,43225
975.195,43073
976.524,43241
977.853,43254
979.182,42968
980.51,43177
981.838,42997
983.165,42962
984.493,43007
985.819,43003
987.146,42871
988.472,43035
989.798,42913
991.123,43004
992.448,42802
993.773,42849
995.097,42968
996.421,42724
997.745,42765
999.068,42670
1000.39,42785
1001.71,42985
1003.04,42834
1004.36,42955
1005.68,43148
1007,43033
1008.32,43030
1009.64,43270
1010.96,42921
1012.28,43051
1013.6,42856
1014.92,42951
1016.24,42504
1017.56,42564
1018.88,42270
1020.19,42627
1021.51,42536
1022.83,42623
1024.14,42232
1025.46,42174
1026.78,42039
1028.09,41917
1029.41,42017
1030.72,41901
1032.04,42307
1033.35,42033
1034.67,42035
1035.98,42176
1037.29,41942
1038.6,41968
1039.92,41615
1041.23,41950
1042.54,42120
1043.85,41797
1045.16,41629
1046.47,41641
1047.78,41828
1049.09,41337
1050.4,41723
1051.71,41315
1053.02,41479
1054.33,41475
1055.64,41110
1056.95,41194
1058.26,41235
1059.56,41056
1060.87,41040
1062.18,41244
1063.48,41205
1064.79,41217
1066.09,41079
1067.4,41037
1068.7,40755
1070.01,40892
1071.31,41087
1072.62,40811
1073.92,40807
1075.22,40756
1076.53,40591
1077.83,40798
1079.13,40762
1080.43,40711
1081.73,40742
1083.03,40501
1084.33,40984
1085.63,40522
1086.93,40406
1088.23,40401
1089.53,40483
1090.83,40495
1092.13,40416
1093.43,40450
1094.73,40414
1096.03,40348
1097.32,40269
1098.62,40303
1099.92,40245
1101.21,39986
1102.51,40009
1103.8,40224
1105.1,39980
1106.39,40267
1107.69,40183
1108.98,40036
1110.28,40053
1111.57,39804
1112.86,40262
1114.16,40058
1115.45,39930
1116.74,40337
1118.03,40299
1119.32,40401
1120.61,40422
1121.91,40409
1123.2,40461
1124.49,40929
1125.78,40614
1127.06,41070
1128.35,40926
1129.64,40730
1130.93,41144
1132.22,40789
1133.51,40801
1134.79,40914
1136.08,40754
1137.37,40891
1138.65,40568
1139.94,40556
1141.23,40672
1142.51,40527
1143.8,40192
1145.08,40498
1146.36,40282
1147.65,40143
1148.93,40322
1150.22,40245
1151.5,40256
1152.78,40569
1154.06,40520
1155.34,40569
1156.63,40413
1157.91,40308
1159.19,40306
1160.47,39970
1161.75,39759
1163.03,39500
1164.31,39246
1165.59,38493
1166.87,38444
1168.15,38227
1169.42,38403
1170.7,38079
1171.98,38208
1173.26,38186
1174.53,38287
1175.81,38085
1177.09,38483
1178.36,38640
1179.64,38674
1180.91,38558
1182.19,38750
1183.46,38597
1184.74,38413
1186.01,38731
1187.28,38269
1188.56,38489
1189.83,38308
1191.1,38271
1192.37,37969
1193.65,38115
1194.92,37868
1196.19,37596
1197.46,37656
1198.73,37821
1200,37642
1201.27,37866
1202.54,37466
1203.81,37285
1205.08,37390
1206.35,37137
1207.61,37200
1208.88,37050
1210.15,37241
1211.42,37054
1212.68,37305
1213.95,37360
1215.22,37502
1216.48,37186
1217.75,36914
1219.01,36836
1220.28,36905
1221.54,36818
1222.81,36622
1224.07,36673
1225.33,36325
1226.6,36309
1227.86,36168
1229.12,35985
1230.38,35751
1231.64,35595
1232.91,35803
1234.17,35602
1235.43,35594
1236.69,35347
1237.95,35546
1239.21,35640
1240.47,35321
1241.73,35248
1242.99,35224
1244.25,35434
1245.5,35156
1246.76,35415
1248.02,34936
1249.28,35031
1250.53,34904
1251.79,35020
1253.05,34774
1254.3,34657
1255.56,34451
1256.81,34512
1258.07,34610
1259.32,34855
1260.58,34562
1261.83,34388
1263.08,34429
1264.34,34551
1265.59,34262
1266.84,34435
1268.09,34325
1269.35,34545
1270.6,34459
1271.85,34511
1273.1,34426
1274.35,34760
1275.6,34725
1276.85,34818
1278.1,35243
1279.35,35034
1280.6,35348
1281.85,35364
1283.1,35302
1284.34,35245
1285.59,35167
1286.84,35250
1288.09,35048
1289.33,34758
1290.58,34516
1291.82,34336
1293.07,33882
1294.32,33790
1295.56,33410
1296.81,33236
1298.05,33071
1299.29,32969
1300.54,32854
1301.78,32605
1303.02,32311
1304.27,32655
1305.51,32253
1306.75,32035
1307.99,31897
1309.24,31812
1310.48,31579
1311.72,31681
1312.96,31633
1314.2,31371
1315.44,31538
1316.68,31162
1317.92,31345
1319.16,31139
1320.39,31375
1321.63,31189
1322.87,31132
1324.11,30776
1325.35,30645
1326.58,30680
1327.82,30620
1329.06,30531
1330.29,30478
1331.53,30404
1332.76,30182
1334,30164
1335.23,30261
1336.47,30287
1337.7,30590
1338.93,30309
1340.17,30429
1341.4,30479
1342.63,30476
1343.87,30461
1345.1,30284
1346.33,30017
1347.56,29955
1348.79,30039
1350.02,29665
1351.25,29544
1352.48,29276
1353.71,29089
1354.94,29089
1356.17,29212
1357.4,29047
1358.63,28828
1359.86,28506
1361.09,28483
1362.31,28434
1363.54,28409
1364.77,27965
1365.99,28109
1367.22,27836
1368.45,27859
1369.67,27656
1370.9,27824
1372.12,27232
1373.35,27202
1374.57,27171
1375.8,27033
1377.02,26805
1378.24,26526
1379.47,26616
1380.69,26329
1381.91,26285
1383.13,26056
1384.36,26061
1385.58,25833
1386.8,25701
1388.02,25644
1389.24,25347
1390.46,25483
1391.68,25122
1392.9,25058
1394.12,25046
1395.34,25042
1396.56,24792
1397.78,24623
1398.99,24508
1400.21,24433
1401.43,24211
1402.65,24125
1403.86,24129
1405.08,24344
1406.3,24140
1407.51,24000
1408.73,24123
1409.94,23947
1411.16,23782
1412.37,23739
1413.59,23668
1414.8,23709
1416.01,23559
1417.23,23236
1418.44,23166
1419.65,22958
1420.87,22682
1422.08,22703
1423.29,22604
1424.5,22510
1425.71,22401
1426.92,22045
1428.13,21959
1429.34,22068
1430.55,22037
1431.76,21806
1432.97,21755
1434.18,21392
1435.39,21273
1436.6,21059
1437.81,20990
1439.01,20856
1440.22,20724
1441.43,20571
1442.63,20667
1443.84,20459
1445.05,20084
1446.25,19952
1447.46,20137
1448.66,19832
1449.87,19555
1451.07,19689
1452.28,19516
1453.48,19365
1454.68,19152
1455.89,19136
1457.09,19077
1458.29,18900
1459.5,18786
1460.7,18646
1461.9,18573
1463.1,18619
1464.3,18556
1465.5,18433
1466.7,18222
1467.9,18197
1469.1,17942
1470.3,17867
1471.5,17746
1472.7,17521
1473.9,17640
1475.1,17514
1476.3,17330
1477.49,17369
1478.69,17337
1479.89,17138
1481.09,17137
1482.28,17069
1483.48,16888
1484.67,16742
1485.87,16713
1487.06,16336
1488.26,16199
1489.45,16325
1490.65,16339
1491.84,16253
1493.04,16062
1494.23,15938
1495.42,15818
1496.62,15774
1497.81,15592
1499,15679
1500.19,15347
1501.38,15230
1502.57,15174
1503.77,15034
1504.96,14830
1506.15,14790
1507.34,14790
1508.53,14580
1509.71,14516
1510.9,14357
1512.09,14229
1513.28,14440
1514.47,14147
1515.66,14089
1516.84,13867
1518.03,13728
1519.22,13774
1520.41,13558
1521.59,13466
1522.78,13311
1523.96,13299
1525.15,13250
1526.33,13010
1527.52,13055
1528.7,12897
1529.89,12819
1531.07,12896
1532.25,12619
1533.44,12458
1534.62,12378
1535.8,12214
1536.99,12095
1538.17,12144
1539.35,12007
1540.53,11916
1541.71,11892
1542.89,11799
1544.07,11620
1545.25,11424
1546.43,11448
1547.61,11436
1548.79,11334
1549.97,11350
1551.15,11255
1552.33,11225
1553.51,11076
1554.68,11092
1555.86,11020
1557.04,10846
1558.21,10714
1559.39,10628
1560.57,10720
1561.74,10612
1562.92,10486
1564.09,10538
1565.27,10357
1566.44,10258
1567.62,10297
1568.79,10265
1569.97,10083
1571.14,10169
1572.31,10137
1573.49,10023
1574.66,9919
1575.83,9895
1577,9769
1578.17,9754
1579.35,9597
1580.52,9599
1581.69,9476
1582.86,9486
1584.03,9339
1585.2,9202
1586.37,9201
1587.54,9194
1588.71,9118
1589.88,9015
1591.04,9004
1592.21,8851
1593.38,8691
1594.55,8648
1595.71,8414
1596.88,8316
1598.05,8249
1599.21,8106
1600.38,8018
1601.55,7964
1602.71,7866
1603.88,7794
1605.04,7814
1606.2,7573
1607.37,7504
1608.53,7442
1609.7,7366
1610.86,7310
1612.02,7211
1613.19,7217
1614.35,7017
1615.51,7036
1616.67,7038
1617.83,6987
1618.99,6902
1620.16,6734
1621.32,6665
1622.48,6685
1623.64,6568
1624.8,6557
1625.96,6393
1627.11,6445
1628.27,6405
1629.43,6279
1630.59,6122
1631.75,6135
1632.91,6055
1634.06,5990
1635.22,5951
1636.38,5845
1637.53,5931
1638.69,5698
1639.84,5804
1641,5692
1642.16,5569
1643.31,5572
1644.47,5412
1645.62,5412
1646.77,5345
1647.93,5324
1649.08,5219
1650.23,5118
1651.39,5173
1652.54,5138
1653.69,5131
1654.84,4984
1656,5063
1657.15,4863
1658.3,4899
1659.45,4864
1660.6,4890
1661.75,4757
1662.9,4774
1664.05,4682
1665.2,4598
1666.35,4578
1667.5,4585
1668.64,4508
1669.79,4482
1670.94,4403
1672.09,4406
1673.24,4256
1674.38,4292
1675.53,4270
1676.68,4209
1677.82,4283
1678.97,4206
1680.11,4151
1681.26,4138
1682.4,4016
1683.55,4054
1684.69,3978
1685.84,3926
1686.98,3815
1688.12,3882
1689.27,3792
1690.41,3802
1691.55,3738
1692.69,3699
1693.84,3618
1694.98,3600
1696.12,3589
1697.26,3579
1698.4,3553
1699.54,3536
1700.68,3434
1701.82,3467
1702.96,3408
1704.1,3448
1705.24,3328
1706.38,3359
1707.52,3400
1708.66,3289
1709.79,3278
1710.93,3255
1712.07,3271
1713.21,3200
1714.34,3156
1715.48,3160
1716.62,3128
1717.75,3130
1718.89,3098
1720.02,3043
1721.16,3015
1722.29,2971
1723.43,2978
1724.56,2934
1725.69,2867
1726.83,2854
1727.96,2801
1729.09,2770
1730.23,2761
1731.36,2783
1732.49,2768
1733.62,2746
1734.75,2725
1735.89,2749
1737.02,2702
1738.15,2665
1739.28,2654
1740.41,2631
1741.54,2668
1742.67,2603
1743.8,2583
1744.93,2576
1746.05,2519
1747.18,2550
1748.31,2416
1749.44,2479
1750.57,2498
1751.69,2441
1752.82,2414
1753.95,2448
1755.07,2380
1756.2,2382
1757.32,2377
1758.45,2401
1759.58,2343
1760.7,2317
1761.83,2311
1762.95,2271
1764.07,2315
1765.2,2262
1766.32,2294
1767.44,2290
1768.57,2216
1769.69,2195
1770.81,2191
1771.93,2196
1773.06,2176
1774.18,2174
1775.3,2186
1776.42,2104
1777.54,2124
1778.66,2093
1779.78,2112
1780.9,2095
1782.02,2081
1783.14,2083
1784.26,2027
1785.38,2018
1786.49,2009
1787.61,1993
1788.73,1994
1789.85,1995
1790.97,1945
1792.08,1970
1793.2,1929
1794.32,1954
1795.43,1944
1796.55,1919
1797.66,1875
1798.78,1932
1799.89,1906
1801.01,1891
1802.12,1885
1803.24,1870
1804.35,1850
1805.46,1859
1806.58,1843
1807.69,1896
1808.8,1866
1809.91,1856
1811.03,1835
1812.14,1871
1813.25,1834
1814.36,1777
1815.47,1823
1816.58,1827
1817.69,1813
1818.8,1785
1819.91,1783
1821.02,1739
1822.13,1744
1823.24,1776
1824.35,1743
1825.46,1742
1826.57,1731
1827.67,1718
1828.78,1716
1829.89,1734
1831,1695
1832.1,1720
1833.21,1687
1834.32,1702
1835.42,1650
1836.53,1653
1837.63,1671
1838.74,1701
1839.84,1651
1840.95,1647
1842.05,1688
1843.16,1671
1844.26,1653
1845.36,1640
1846.47,1656
1847.57,1600
1848.67,1620
1849.77,1607
1850.88,1629
1851.98,1635
1853.08,1629
1854.18,1574
1855.28,1619
1856.38,1630
1857.48,1594
1858.58,1600
1859.68,1560
1860.78,1581
1861.88,1558
1862.98,1570
1864.08,1527
1865.18,1562
1866.27,1553
1867.37,1559
1868.47,1526
1869.57,1540
1870.66,1533
1871.76,1527
1872.86,1518
1873.95,1505
1875.05,1560
1876.14,1532
1877.24,1533
1878.34,1555
1879.43,1530
1880.52,1507
1881.62,1551
1882.71,1511
1883.81,1491
1884.9,1493
1885.99,1520
1887.09,1526
1888.18,1520
1889.27,1447
1890.36,1516
1891.45,1504
1892.55,1497
1893.64,1488
1894.73,1476
1895.82,1465
1896.91,1470
1898,1467
1899.09,1495
1900.18,1485
1901.27,1470
1902.36,1480
1903.44,1472
1904.53,1450
1905.62,1452
1906.71,1458
1907.8,1474
1908.88,1482
1909.97,1494
1911.06,1450
1912.14,1465
1913.23,1454
1914.32,1442
1915.4,1419
1916.49,1446
1917.57,1436
1918.66,1419
1919.74,1413
1920.83,1475
1921.91,1436
1922.99,1464
1924.08,1407
1925.16,1416
1926.24,1428
1927.33,1442
1928.41,1430
1929.49,1441
1930.57,1438
1931.65,1443
1932.74,1408
1933.82,1405
1934.9,1399
1935.98,1410
1937.06,1368
1938.14,1399
1939.22,1427
1940.3,1408
1941.38,1439
1942.46,1426
1943.53,1440
1944.61,1433
1945.69,1407
1946.77,1402
1947.85,1401
1948.92,1440
1950,1403
1951.08,1368
1952.15,1395
1953.23,1413
1954.3,1387
1955.38,1400
1956.46,1398
1957.53,1383
1958.61,1390
1959.68,1368
1960.75,1367
1961.83,1387
1962.9,1377
1963.98,1401
1965.05,1363
1966.12,1374
1967.19,1383
1968.27,1381
1969.34,1370
1970.41,1402
1971.48,1363
1972.55,1368
1973.62,1376
1974.69,1355
1975.76,1390
1976.84,1355
1977.91,1366
1978.97,1366
1980.04,1378
1981.11,1408