File: example raman data/GM4-Fiber001.v4-Black-5.5umx0.75um_10sec.csv
269.58,33728
271.101,34120
272.622,34088
274.142,34060
275.662,34110
277.181,34045
278.7,33847
280.219,33875
281.737,33812
283.254,33949
284.772,33787
286.288,33459
287.805,33631
289.321,33909
290.837,33583
292.352,33579
293.866,33307
295.381,33584
296.895,33548
298.408,33583
299.921,33503
301.434,33813
302.946,33581
304.458,33267
305.969,33100
307.48,33519
308.991,33348
310.501,33398
312.011,33435
313.52,33410
315.029,33148
316.538,33088
318.046,33403
319.553,33322
321.061,33504
322.567,33211
324.074,33282
325.58,33249
327.085,33172
328.591,33413
330.095,33233
331.6,32976
333.104,33183
334.607,33058
336.11,33257
337.613,33224
339.115,32957
340.617,33070
342.118,33165
343.619,33077
345.12,32901
346.62,32797
348.12,32820
349.619,32804
351.118,32578
352.617,32631
354.115,32705
355.612,32797
357.11,32421
358.607,32504
360.103,32694
361.599,32442
363.095,32396
364.59,32663
366.085,32645
367.579,32475
369.073,32392
370.567,32539
372.06,32412
373.553,32320
375.045,32388
376.537,32408
378.028,32379
379.52,32238
381.01,32376
382.5,32313
383.99,32323
385.48,32521
386.969,32302
388.458,32350
389.946,32272
391.434,32180
392.921,32321
394.408,32154
395.895,32251
397.381,32418
398.867,32287
400.352,32401
401.837,32536
403.321,32357
404.806,32466
406.289,32296
407.773,32103
409.256,32160
410.738,32463
412.22,32402
413.702,32172
415.183,32082
416.664,32043
418.145,32110
419.625,31986
421.104,32242
422.584,32071
424.062,32075
425.541,31859
427.019,31981
428.496,31821
429.974,32212
431.451,32066
432.927,31891
434.403,31936
435.879,31705
437.354,32048
438.829,31957
440.303,31742
441.777,31795
443.251,31692
444.724,31605
446.196,31863
447.669,31666
449.141,31662
450.612,31775
452.083,31709
453.554,31666
455.025,31671
456.495,31566
457.964,31851
459.433,31707
460.902,31680
462.37,31689
463.838,31727
465.306,31726
466.773,31840
468.24,31596
469.706,31820
471.172,31820
472.637,31967
474.102,31777
475.567,31886
477.031,32175
478.495,32115
479.959,32358
481.422,32333
482.885,32560
484.347,32651
485.809,33168
487.27,33200
488.732,33095
490.192,33221
491.653,32991
493.113,32695
494.572,32695
496.031,32544
497.49,32250
498.948,32001
500.406,32003
501.864,31796
503.321,31886
504.777,31538
506.234,31661
507.69,31582
509.145,31340
510.6,31409
512.055,31573
513.509,31506
514.963,31362
516.417,31646
517.87,31346
519.323,31141
520.775,31314
522.227,31409
523.679,31166
525.13,31080
526.58,31109
528.031,31023
529.481,31179
530.93,30934
532.379,31071
533.828,30889
535.277,30915
536.725,30809
538.172,31046
539.619,31052
541.066,31075
542.513,31120
543.959,30709
545.404,31104
546.849,30702
548.294,31080
549.739,31035
551.183,30882
552.626,31063
554.07,30999
555.512,30945
556.955,30978
558.397,30758
559.839,30634
561.28,30811
562.721,30967
564.161,30921
565.601,30676
567.041,30566
568.48,30644
569.919,30842
571.358,30933
572.796,30842
574.234,30910
575.671,30830
577.108,30917
578.545,30597
579.981,30592
581.417,30761
582.852,30634
584.287,30291
585.722,30613
587.156,30607
588.59,30481
590.023,30705
591.456,30342
592.889,30539
594.321,30566
595.753,30333
597.185,30255
598.616,30375
600.046,30331
601.477,30462
602.907,30409
604.336,30304
605.765,30414
607.194,30358
608.623,30158
610.051,30369
611.478,30223
612.905,30345
614.332,30132
615.759,30297
617.185,30122
618.61,30090
620.036,30276
621.461,29932
622.885,30090
624.309,30010
625.733,30187
627.156,29760
628.579,30136
630.002,29944
631.424,29939
632.846,29854
634.267,29980
635.688,29896
637.109,29765
638.529,29711
639.949,29967
641.369,29939
642.788,30025
644.206,29745
645.625,29700
647.043,29795
648.46,29699
649.877,29578
651.294,29813
652.711,29709
654.127,29938
655.542,29593
656.958,29452
658.372,29718
659.787,29465
661.201,29507
662.615,29361
664.028,29510
665.441,29364
666.854,29334
668.266,29325
669.678,29307
671.089,29467
672.5,29453
673.911,29312
675.321,29392
676.731,29118
678.14,29097
679.55,29196
680.958,29265
682.367,29235
683.775,29220
685.182,29160
686.589,29092
687.996,29092
689.403,29025
690.809,29023
692.215,29236
693.62,29319
695.025,29051
696.429,28735
697.834,29039
699.237,28736
700.641,28784
702.044,28707
703.446,28853
704.849,28569
706.251,28705
707.652,28616
709.053,28587
710.454,28722
711.854,28723
713.254,28623
714.654,28478
716.053,28442
717.452,28438
718.851,28496
720.249,28286
721.647,28290
723.044,28574
724.441,28351
725.837,28377
727.234,28280
728.63,28254
730.025,28343
731.42,28288
732.815,28066
734.209,28130
735.603,28196
736.997,28236
738.39,28131
739.783,28212
741.175,27951
742.567,27833
743.959,27942
745.35,28111
746.741,28109
748.132,28071
749.522,28089
750.912,27996
752.301,28111
753.69,27914
755.079,27857
756.468,27946
757.855,28016
759.243,28080
760.63,28032
762.017,27897
763.404,27805
764.79,27818
766.175,28197
767.561,27711
768.946,27774
770.33,27959
771.714,27735
773.098,27771
774.482,27870
775.865,27766
777.248,27767
778.63,27736
780.012,27613
781.394,27550
782.775,27470
784.156,27342
785.536,27545
786.916,27503
788.296,27384
789.675,27550
791.054,27468
792.433,27268
793.811,27177
795.189,27307
796.567,27346
797.944,27135
799.321,27411
800.697,27360
802.073,27160
803.449,27058
804.824,27140
806.199,26983
807.574,27286
808.948,26986
810.322,27003
811.695,27060
813.068,26663
814.441,27007
815.813,27145
817.185,26964
818.557,26864
819.928,26912
821.299,26842
822.67,26880
824.04,27123
825.409,26900
826.779,26989
828.148,26614
829.517,26846
830.885,26919
832.253,26895
833.62,26799
834.988,26690
836.354,26803
837.721,26820
839.087,26783
840.453,26603
841.818,26802
843.183,26883
844.548,26897
845.912,26747
847.276,26636
848.639,26956
850.002,26666
851.365,26804
852.728,26668
854.09,26746
855.451,26659
856.813,26664
858.174,26750
859.534,26720
860.895,26681
862.254,26695
863.614,26632
864.973,26631
866.332,26805
867.69,26949
869.048,26911
870.406,26905
871.763,26894
873.12,26663
874.477,26716
875.833,26599
877.189,26559
878.545,26739
879.9,26568
881.255,26654
882.609,26582
883.963,26895
885.317,26584
886.67,26639
888.023,26687
889.376,26673
890.728,26486
892.08,26593
893.431,26532
894.782,26708
896.133,26804
897.484,26543
898.834,26721
900.183,26592
901.533,26479
902.882,26703
904.23,26718
905.579,26724
906.927,26595
908.274,26745
909.621,26671
910.968,26733
912.315,26547
913.661,26476
915.006,26660
916.352,26478
917.697,26395
919.042,26303
920.386,26195
921.73,26438
923.073,26343
924.417,26191
925.76,26003
927.102,26234
928.444,26251
929.786,26314
931.127,26209
932.469,26210
933.809,26207
935.15,26244
936.49,26107
937.829,26274
939.169,26339
940.508,25903
941.846,26081
943.184,25946
944.522,26063
945.86,25763
947.197,25770
948.534,26052
949.87,25910
951.206,25986
952.542,25849
953.877,25880
955.212,25962
956.547,25934
957.881,25571
959.215,25907
960.549,25801
961.882,25809
963.215,25732
964.547,25802
965.879,25972
967.211,25693
968.543,25663
969.874,25865
971.205,25804
972.535,25785
973.865,25671
975.195,25751
976.524,25825
977.853,25614
979.182,25505
980.51,25579
981.838,25332
983.165,25643
984.493,25451
985.819,25728
987.146,25431
988.472,25713
989.798,25666
991.123,25525
992.448,25618
993.773,25556
995.097,25528
996.421,25658
997.745,25648
999.068,25509
1000.39,25493
1001.71,25535
1003.04,25539
1004.36,25584
1005.68,25672
1007,25846
1008.32,25520
1009.64,25514
1010.96,25715
1012.28,25729
1013.6,25518
1014.92,25532
1016.24,25538
1017.56,25369
1018.88,25590
1020.19,25367
1021.51,25597
1022.83,25396
1024.14,25436
1025.46,25478
1026.78,25362
1028.09,25565
1029.41,25406
1030.72,25348
1032.04,25263
1033.35,25159
1034.67,25340
1035.98,25247
1037.29,25359
1038.6,25207
1039.92,25155
1041.23,25429
1042.54,25332
1043.85,24966
1045.16,25176
1046.47,25020
1047.78,25010
1049.09,25066
1050.4,25115
1051.71,25084
1053.02,24917
1054.33,25086
1055.64,24927
1056.95,24912
1058.26,25095
1059.56,24736
1060.87,24929
1062.18,25067
1063.48,25001
1064.79,24864
1066.09,24857
1067.4,24864
1068.7,25071
1070.01,24839
1071.31,24894
1072.62,24544
1073.92,24583
1075.22,24607
1076.53,24791
1077.83,24606
1079.13,24772
1080.43,24736
1081.73,24903
1083.03,24768
1084.33,24720
1085.63,24648
1086.93,24740
1088.23,24789
1089.53,24721
1090.83,24737
1092.13,24699
1093.43,24450
1094.73,24883
1096.03,24828
1097.32,24740
1098.62,24617
1099.92,24479
1101.21,24515
1102.51,24368
1103.8,24543
1105.1,24563
1106.39,24668
1107.69,24530
1108.98,24368
1110.28,24584
1111.57,24613
1112.86,24612
1114.16,24610
1115.45,24400
1116.74,24788
1118.03,24427
1119.32,24579
1120.61,24683
1121.91,24749
1123.2,24746
1124.49,24925
1125.78,24824
1127.06,24987
1128.35,24829
1129.64,24735
1130.93,24812
1132.22,25034
1133.51,24938
1134.79,25134
1136.08,24878
1137.37,24876
1138.65,24942
1139.94,24632
1141.23,24592
1142.51,24620
1143.8,24722
1145.08,24557
1146.36,24512
1147.65,24497
1148.93,24675
1150.22,24654
1151.5,24570
1152.78,24801
1154.06,24695
1155.34,24613
1156.63,24547
1157.91,24648
1159.19,24523
1160.47,24608
1161.75,24473
1163.03,24388
1164.31,23970
1165.59,23927
1166.87,23781
1168.15,23849
1169.42,23596
1170.7,23558
1171.98,23617
1173.26,23648
1174.53,23618
1175.81,23894
1177.09,23782
1178.36,23696
1179.64,23999
1180.91,23834
1182.19,24107
1183.46,23813
1184.74,23772
1186.01,23862
1187.28,23693
1188.56,23716
1189.83,23600
1191.1,23823
1192.37,23765
1193.65,23698
1194.92,23589
1196.19,23529
1197.46,23516
1198.73,23504
1200,23592
1201.27,23360
1202.54,23497
1203.81,23392
1205.08,23399
1206.35,23199
1207.61,23292
1208.88,23474
1210.15,23317
1211.42,23307
1212.68,23308
1213.95,23233
1215.22,23463
1216.48,23538
1217.75,23522
1219.01,23290
1220.28,23261
1221.54,23131
1222.81,23016
1224.07,23166
1225.33,23045
1226.6,23067
1227.86,22912
1229.12,22786
1230.38,22679
1231.64,22852
1232.91,22735
1234.17,22471
1235.43,22678
1236.69,22511
1237.95,22596
1239.21,22675
1240.47,22695
1241.73,22452
1242.99,22451
1244.25,22577
1245.5,22633
1246.76,22593
1248.02,22576
1249.28,22414
1250.53,22301
1251.79,22274
1253.05,22195
1254.3,22255
1255.56,21952
1256.81,21951
1258.07,22142
1259.32,22183
1260.58,22075
1261.83,22206
1263.08,22225
1264.34,22130
1265.59,21928
1266.84,22115
1268.09,22148
1269.35,22128
1270.6,22130
1271.85,22221
1273.1,22249
1274.35,22198
1275.6,22255
1276.85,22346
1278.1,22264
1279.35,22512
1280.6,22414
1281.85,22271
1283.1,22430
1284.34,22565
1285.59,22454
1286.84,22326
1288.09,22405
1289.33,22255
1290.58,22100
1291.82,22164
1293.07,21869
1294.32,21688
1295.56,21695
1296.81,21478
1298.05,21324
1299.29,21316
1300.54,21323
1301.78,21199
1303.02,21223
1304.27,21102
1305.51,20945
1306.75,21136
1307.99,20762
1309.24,20934
1310.48,20598
1311.72,20634
1312.96,20752
1314.2,20329
1315.44,20518
1316.68,20408
1317.92,20464
1319.16,20341
1320.39,20367
1321.63,20339
1322.87,20382
1324.11,20392
1325.35,20278
1326.58,20240
1327.82,20142
1329.06,20014
1330.29,20056
1331.53,20040
1332.76,20052
1334,19908
1335.23,19928
1336.47,19843
1337.7,19770
1338.93,19952
1340.17,20073
1341.4,19805
1342.63,19959
1343.87,20030
1345.1,19701
1346.33,19647
1347.56,19777
1348.79,19619
1350.02,19495
1351.25,19394
1352.48,19555
1353.71,19315
1354.94,19220
1356.17,19096
1357.4,19120
1358.63,18993
1359.86,19013
1361.09,18790
1362.31,18800
1363.54,18767
1364.77,18600
1365.99,18636
1367.22,18567
1368.45,18452
1369.67,18488
1370.9,18510
1372.12,18369
1373.35,18122
1374.57,18213
1375.8,18278
1377.02,18053
1378.24,17788
1379.47,17716
1380.69,17655
1381.91,17684
1383.13,17725
1384.36,17492
1385.58,17473
1386.8,17302
1388.02,17351
1389.24,17254
1390.46,17147
1391.68,17089
1392.9,17065
1394.12,16822
1395.34,16922
1396.56,16811
1397.78,16839
1398.99,16734
1400.21,16600
1401.43,16615
1402.65,16583
1403.86,16636
1405.08,16447
1406.3,16420
1407.51,16428
1408.73,16404
1409.94,16278
1411.16,16423
1412.37,16219
1413.59,16112
1414.8,15946
1416.01,15915
1417.23,15809
1418.44,15782
1419.65,15585
1420.87,15608
1422.08,15492
1423.29,15423
1424.5,15339
1425.71,15482
1426.92,15225
1428.13,15225
1429.34,15262
1430.55,15012
1431.76,15027
1432.97,14805
1434.18,14734
1435.39,14751
1436.6,14663
1437.81,14617
1439.01,14433
1440.22,14421
1441.43,14369
1442.63,14231
1443.84,14158
1445.05,14138
1446.25,13849
1447.46,13875
1448.66,13843
1449.87,13852
1451.07,13662
1452.28,13672
1453.48,13509
1454.68,13560
1455.89,13388
1457.09,13572
1458.29,13336
1459.5,13230
1460.7,13104
1461.9,13127
1463.1,13017
1464.3,13036
1465.5,12981
1466.7,12828
1467.9,12824
1469.1,12631
1470.3,12761
1471.5,12565
1472.7,12526
1473.9,12534
1475.1,12374
1476.3,12381
1477.49,12286
1478.69,12292
1479.89,12176
1481.09,12094
1482.28,12095
1483.48,11953
1484.67,11864
1485.87,11896
1487.06,11696
1488.26,11681
1489.45,11608
1490.65,11440
1491.84,11604
1493.04,11280
1494.23,11408
1495.42,11463
1496.62,11280
1497.81,11231
1499,11195
1500.19,11056
1501.38,10912
1502.57,11016
1503.77,10768
1504.96,10734
1506.15,10699
1507.34,10606
1508.53,10574
1509.71,10597
1510.9,10511
1512.09,10367
1513.28,10366
1514.47,10271
1515.66,10139
1516.84,10110
1518.03,10047
1519.22,10090
1520.41,9900
1521.59,9776
1522.78,9799
1523.96,9671
1525.15,9587
1526.33,9597
1527.52,9437
1528.7,9575
1529.89,9446
1531.07,9375
1532.25,9173
1533.44,9179
1534.62,9206
1535.8,9206
1536.99,9088
1538.17,9022
1539.35,9027
1540.53,8894
1541.71,8863
1542.89,8727
1544.07,8764
1545.25,8699
1546.43,8604
1547.61,8553
1548.79,8567
1549.97,8479
1551.15,8370
1552.33,8437
1553.51,8335
1554.68,8241
1555.86,8195
1557.04,8171
1558.21,8114
1559.39,7982
1560.57,8068
1561.74,8018
1562.92,7839
1564.09,7799
1565.27,7752
1566.44,7811
1567.62,7699
1568.79,7711
1569.97,7695
1571.14,7709
1572.31,7595
1573.49,7636
1574.66,7589
1575.83,7413
1577,7406
1578.17,7355
1579.35,7278
1580.52,7212
1581.69,7215
1582.86,7127
1584.03,7050
1585.2,7056
1586.37,7024
1587.54,7024
1588.71,6964
1589.88,6859
1591.04,6847
1592.21,6823
1593.38,6684
1594.55,6598
1595.71,6566
1596.88,6369
1598.05,6432
1599.21,6335
1600.38,6237
1601.55,6197
1602.71,6154
1603.88,6166
1605.04,6055
1606.2,6072
1607.37,5963
1608.53,5972
1609.7,5874
1610.86,5772
1612.02,5808
1613.19,5776
1614.35,5727
1615.51,5726
1616.67,5688
1617.83,5598
1618.99,5535
1620.16,5555
1621.32,5525
1622.48,5440
1623.64,5381
1624.8,5365
1625.96,5283
1627.11,5300
1628.27,5303
1629.43,5211
1630.59,5176
1631.75,5071
1632.91,4994
1634.06,5039
1635.22,4951
1636.38,4935
1637.53,4907
1638.69,4786
1639.84,4862
1641,4727
1642.16,4676
1643.31,4613
1644.47,4670
1645.62,4682
1646.77,4530
1647.93,4488
1649.08,4328
1650.23,4407
1651.39,4430
1652.54,4350
1653.69,4249
1654.84,4271
1656,4223
1657.15,4247
1658.3,4191
1659.45,4180
1660.6,4145
1661.75,4046
1662.9,4081
1664.05,4016
1665.2,4031
1666.35,3983
1667.5,3923
1668.64,3987
1669.79,3929
1670.94,3820
1672.09,3827
1673.24,3795
1674.38,3794
1675.53,3774
1676.68,3739
1677.82,3714
1678.97,3681
1680.11,3757
1681.26,3663
1682.4,3616
1683.55,3535
1684.69,3605
1685.84,3536
1686.98,3469
1688.12,3430
1689.27,3451
1690.41,3458
1691.55,3413
1692.69,3382
1693.84,3390
1694.98,3350
1696.12,3295
1697.26,3251
1698.4,3242
1699.54,3231
1700.68,3280
1701.82,3267
1702.96,3229
1704.1,3156
1705.24,3195
1706.38,3127
1707.52,3167
1708.66,3152
1709.79,3130
1710.93,3039
1712.07,3094
1713.21,3035
1714.34,3039
1715.48,3050
1716.62,3050
1717.75,2985
1718.89,2963
1720.02,2891
1721.16,2911
1722.29,2901
1723.43,2870
1724.56,2910
1725.69,2828
1726.83,2783
1727.96,2787
1729.09,2699
1730.23,2802
1731.36,2738
1732.49,2755
1733.62,2682
1734.75,2711
1735.89,2640
1737.02,2631
1738.15,2650
1739.28,2634
1740.41,2636
1741.54,2635
1742.67,2622
1743.8,2579
1744.93,2565
1746.05,2537
1747.18,2539
1748.31,2589
1749.44,2524
1750.57,2473
1751.69,2550
1752.82,2508
1753.95,2492
1755.07,2465
1756.2,2479
1757.32,2455
1758.45,2460
1759.58,2459
1760.7,2428
1761.83,2400
1762.95,2446
1764.07,2342
1765.2,2358
1766.32,2371
1767.44,2369
1768.57,2355
1769.69,2317
1770.81,2278
1771.93,2334
1773.06,2297
1774.18,2272
1775.3,2318
1776.42,2279
1777.54,2252
1778.66,2260
1779.78,2267
1780.9,2253
1782.02,2234
1783.14,2263
1784.26,2210
1785.38,2239
1786.49,2186
1787.61,2161
1788.73,2198
1789.85,2243
1790.97,2180
1792.08,2131
1793.2,2155
1794.32,2147
1795.43,2148
1796.55,2144
1797.66,2097
1798.78,2092
1799.89,2093
1801.01,2138
1802.12,2124
1803.24,2099
1804.35,2088
1805.46,2063
1806.58,2100
1807.69,2103
1808.8,2123
1809.91,2078
1811.03,2063
1812.14,2107
1813.25,2094
1814.36,2055
1815.47,2050
1816.58,2095
1817.69,2032
1818.8,1994
1819.91,2019
1821.02,2031
1822.13,2046
1823.24,2034
1824.35,2015
1825.46,1994
1826.57,2061
1827.67,2059
1828.78,2034
1829.89,1999
1831,2010
1832.1,1980
1833.21,1995
1834.32,2017
1835.42,2007
1836.53,1957
1837.63,1930
1838.74,1966
1839.84,1939
1840.95,1991
1842.05,1911
1843.16,1987
1844.26,1987
1845.36,1939
1846.47,1962
1847.57,1998
1848.67,1916
1849.77,1927
1850.88,1942
1851.98,1922
1853.08,1979
1854.18,1906
1855.28,1904
1856.38,1930
1857.48,1865
1858.58,1913
1859.68,1906
1860.78,1892
1861.88,1899
1862.98,1930
1864.08,1956
1865.18,1915
1866.27,1852
1867.37,1879
1868.47,1910
1869.57,1892
1870.66,1870
1871.76,1893
1872.86,1863
1873.95,1863
1875.05,1859
1876.14,1884
1877.24,1872
1878.34,1942
1879.43,1864
1880.52,1887
1881.62,1932
1882.71,1889
1883.81,1884
1884.9,1896
1885.99,1904
1887.09,1879
1888.18,1895
1889.27,1854
1890.36,1872
1891.45,1842
1892.55,1842
1893.64,1860
1894.73,1887
1895.82,1884
1896.91,1880
1898,1882
1899.09,1886
1900.18,1895
1901.27,1852
1902.36,1835
1903.44,1878
1904.53,1882
1905.62,1856
1906.71,1833
1907.8,1858
1908.88,1880
1909.97,1876
1911.06,1898
1912.14,1855
1913.23,1782
1914.32,1847
1915.4,1889
1916.49,1891
1917.57,1872
1918.66,1846
1919.74,1851
1920.83,1887
1921.91,1832
1922.99,1857
1924.08,1847
1925.16,1842
1926.24,1829
1927.33,1866
1928.41,1867
1929.49,1871
1930.57,1839
1931.65,1855
1932.74,1858
1933.82,1840
1934.9,1825
1935.98,1860
1937.06,1894
1938.14,1863
1939.22,1891
1940.3,1835
1941.38,1856
1942.46,1859
1943.53,1843
1944.61,1837
1945.69,1888
1946.77,1878
1947.85,1832
1948.92,1877
1950,1847
1951.08,1864
1952.15,1884
1953.23,1857
1954.3,1864
1955.38,1819
1956.46,1826
1957.53,1852
1958.61,1906
1959.68,1910
1960.75,1871
1961.83,1809
1962.9,1831
1963.98,1863
1965.05,1837
1966.12,1919
1967.19,1876
1968.27,1855
1969.34,1837
1970.41,1881
1971.48,1856
1972.55,1847
1973.62,1811
1974.69,1843
1975.76,1849
1976.84,1865
1977.91,1859
1978.97,1818
1980.04,1876
1981.11,1873